timestamp,ax,ay,az,gx,gy,gz
1757213802431,0.34955344,4.951209,8.731653,-0.8258898,-0.34330627,-0.55955255
1757213802483,0.3854665,4.6351743,8.599973,-0.8258898,-0.34330627,-0.55955255
1757213802483,0.3854665,4.6351743,8.599973,-0.1001819,0.004886922,-0.09285152
1757213802543,0.4429273,4.7070007,8.468291,-0.1001819,0.004886922,-0.09285152
1757213802544,0.4429273,4.7070007,8.468291,-0.17715092,0.0061086523,-0.07574729
1757213802605,0.6536171,4.6926355,8.508993,-0.17715092,0.0061086523,-0.07574729
1757213802605,0.6536171,4.6926355,8.508993,-0.15882497,0.058643065,-0.0036651916
1757213802663,0.6823475,4.1802764,8.544906,-0.15882497,0.058643065,-0.0036651916
1757213802664,0.6823475,4.1802764,8.544906,-0.18081611,0.089186326,0.010995574
1757213802724,0.51475334,4.3526587,8.449138,-0.18081611,0.089186326,0.010995574
1757213802724,0.51475334,4.3526587,8.449138,-0.3408628,0.004886922,0.09162979
1757213802786,-0.09816227,5.839458,9.43076,-0.3408628,0.004886922,0.09162979
1757213802787,-0.09816227,5.839458,9.43076,-1.8154916,-0.39095375,0.8210029
1757213802846,0.2705448,-0.21787235,8.9519205,-1.8154916,-0.39095375,0.8210029
1757213802847,0.2705448,-0.21787235,8.9519205,-4.2772784,-1.0225884,0.8344419
1757213802907,2.7222073,-5.781997,7.3406224,-4.2772784,-1.0225884,0.8344419
1757213802907,2.7222073,-5.781997,7.3406224,-6.327342,-1.6676621,-0.19914207
1757213802967,4.9440265,-10.697293,5.9639564,-6.327342,-1.6676621,-0.19914207
1757213802968,4.9440265,-10.697293,5.9639564,-7.5136423,-0.64751714,-1.7617353
1757213803026,3.3399115,-9.864111,7.457938,-7.5136423,-0.64751714,-1.7617353
1757213803027,3.3399115,-9.864111,7.457938,-2.5546384,0.7464773,-2.5448647
1757213803088,1.7118542,-5.4899044,8.542512,-2.5546384,0.7464773,-2.5448647
1757213803089,1.7118542,-5.4899044,8.542512,-0.42394048,0.77824235,-2.4288
1757213803146,2.801216,-5.2528787,7.019799,-0.42394048,0.77824235,-2.4288
1757213803148,2.801216,-5.2528787,7.019799,-0.7965683,0.5363397,-1.359786
1757213803206,2.6048915,-6.4763155,7.908048,-0.7965683,0.5363397,-1.359786
1757213803208,2.6048915,-6.4763155,7.908048,-0.63163465,0.9297369,-0.47891834
1757213803267,3.3039982,-5.81791,6.6630635,-0.63163465,0.9297369,-0.47891834
1757213803268,3.3039982,-5.81791,6.6630635,0.7122689,0.9443977,-0.4373795
1757213803327,4.6902413,-3.3518825,7.1107793,0.7122689,0.9443977,-0.4373795
1757213803328,4.6902413,-3.3518825,7.1107793,-0.75747293,0.3640757,-0.3921755
1757213803386,4.781221,-6.9240313,5.0637364,-0.75747293,0.3640757,-0.3921755
1757213803387,4.781221,-6.9240313,5.0637364,0.5742133,0.49113566,-0.956615
1757213803447,3.1986535,-6.045359,6.117185,0.5742133,0.49113566,-0.956615
1757213803448,3.1986535,-6.045359,6.117185,-0.39095375,-0.028099801,-1.3573426
1757213803506,3.787627,-4.6926355,5.446809,-0.39095375,-0.028099801,-1.3573426
1757213803507,3.787627,-4.6926355,5.446809,-0.55955255,-0.7452556,-1.2632693
1757213803566,6.9024835,-4.2425256,4.7165775,-0.55955255,-0.7452556,-1.2632693
1757213803568,6.9024835,-4.2425256,4.7165775,-1.1386528,-1.3561208,-0.99082345
1757213803627,9.102755,-5.0134583,4.510676,-1.1386528,-1.3561208,-0.99082345
1757213803628,9.102755,-5.0134583,4.510676,-1.2669345,-1.2046263,-0.57910025
1757213803686,7.953538,-5.3462524,4.209007,-1.2669345,-1.2046263,-0.57910025
1757213803688,7.953538,-5.3462524,4.209007,-1.5625933,-1.2999213,-0.37018433
1757213803746,7.8050976,-7.1227503,4.3742065,-1.5625933,-1.2999213,-0.37018433
1757213803747,7.8050976,-7.1227503,4.3742065,-0.38973203,-1.219287,-0.19425514
1757213803806,6.9240313,-5.092467,4.5178585,-0.38973203,-1.219287,-0.19425514
1757213803808,6.9240313,-5.092467,4.5178585,0.59498274,-1.3671165,0.2883284
1757213803865,7.943961,-4.501099,0.7302315,0.59498274,-1.3671165,0.2883284
1757213803867,7.943961,-4.501099,0.7302315,0.89919364,-0.75747293,0.36285394
1757213803927,8.619126,-2.4756045,3.2082303,0.89919364,-0.75747293,0.36285394
1757213803928,8.619126,-2.4756045,3.2082303,0.5119051,-0.16982053,0.7293731
1757213803986,9.26556,-5.595249,2.707842,0.5119051,-0.16982053,0.7293731
1757213803987,9.26556,-5.595249,2.707842,-0.17837265,-0.408058,0.8356637
1757213804046,8.851364,-7.3669586,2.1811178,-0.17837265,-0.408058,0.8356637
1757213804048,8.851364,-7.3669586,2.1811178,0.66828656,-0.47036624,0.52290064
1757213804106,6.823475,-6.6846113,2.135628,0.66828656,-0.47036624,0.52290064
1757213804108,6.823475,-6.6846113,2.135628,0.39706242,-0.54367006,0.2125811
1757213804167,5.5976434,-7.2185183,2.4540567,0.39706242,-0.54367006,0.2125811
1757213804169,5.5976434,-7.2185183,2.4540567,0.267559,-0.18448131,0.09285152
1757213804226,6.167464,-6.495469,2.9879637,0.267559,-0.18448131,0.09285152
1757213804228,6.167464,-6.495469,2.9879637,0.29077184,0.12583824,0.08674286
1757213804287,6.435614,-7.8912888,3.1866825,0.29077184,0.12583824,0.08674286
1757213804288,6.435614,-7.8912888,3.1866825,-0.35185838,0.16615535,0.13194689
1757213804346,6.6175733,-7.6375036,2.705448,-0.35185838,0.16615535,0.13194689
1757213804348,6.6175733,-7.6375036,2.705448,-0.24678956,0.5656612,-0.29565877
1757213804389,6.265626,-6.1507044,3.040636,-0.24678956,0.5656612,-0.29565877
1757213804390,6.265626,-6.1507044,3.040636,-0.30909783,0.77213365,-0.44715336
1757213804448,7.383718,-6.775591,2.9975405,-0.30909783,0.77213365,-0.44715336
1757213804449,7.383718,-6.775591,2.9975405,-0.65118235,0.7611381,-0.42271876
1757213804509,7.740454,-6.4260373,2.303222,-0.65118235,0.7611381,-0.42271876
1757213804510,7.740454,-6.4260373,2.303222,-0.58032197,0.8527679,-0.35185838
1757213804568,8.793902,-4.939238,3.1316159,-0.58032197,0.8527679,-0.35185838
1757213804569,8.793902,-4.939238,3.1316159,-0.013439035,1.205848,-0.1685988
1757213804628,8.889671,-5.674258,4.285621,-0.013439035,1.205848,-0.1685988
1757213804629,8.889671,-5.674258,4.285621,-0.105068825,1.5039502,0.07819075
1757213804687,7.180211,-6.8306575,5.90889,-0.105068825,1.5039502,0.07819075
1757213804688,7.180211,-6.8306575,5.90889,0.45814893,1.4123205,0.36163223
1757213804748,6.3901243,-4.0557775,5.626374,0.45814893,1.4123205,0.36163223
1757213804750,6.3901243,-4.0557775,5.626374,1.0421361,1.359786,0.29077184
1757213804806,5.66947,-3.5936968,5.5880666,1.0421361,1.359786,0.29077184
1757213804807,5.66947,-3.5936968,5.5880666,0.9761627,0.95417154,0.36896262
1757213804867,2.372654,-4.3023806,4.2161894,0.9761627,0.95417154,0.36896262
1757213804868,2.372654,-4.3023806,4.2161894,0.81000733,0.3811799,0.20647246
1757213804926,1.0462662,-1.6903064,3.1675289,0.81000733,0.3811799,0.20647246
1757213804928,1.0462662,-1.6903064,3.1675289,1.0641272,0.2602286,0.047647487
1757213804987,1.5801731,-2.2601264,1.9297266,1.0641272,0.2602286,0.047647487
1757213804989,1.5801731,-2.2601264,1.9297266,0.24312437,0.30909783,-0.16126843
1757213805048,1.8052281,-2.60968,3.2752678,0.24312437,0.30909783,-0.16126843
1757213805050,1.8052281,-2.60968,3.2752678,0.4569272,0.54367006,-0.010995574
1757213805108,3.3087866,-3.904943,4.4316673,0.4569272,0.54367006,-0.010995574
1757213805109,3.3087866,-3.904943,4.4316673,0.9431759,0.39706242,-0.07086037
1757213805168,4.8027687,-3.7900212,5.4061074,0.9431759,0.39706242,-0.07086037
1757213805169,4.8027687,-3.7900212,5.4061074,0.4129449,0.21868975,-0.13439035
1757213805229,4.331111,-4.7309427,7.7811556,0.4129449,0.21868975,-0.13439035
1757213805230,4.331111,-4.7309427,7.7811556,0.48258355,0.13316862,-0.13194689
1757213805288,5.245696,-4.6830587,7.991845,0.48258355,0.13316862,-0.13194689
1757213805289,5.245696,-4.6830587,7.991845,-0.83077675,-0.21502456,0.035430185
1757213805348,5.475539,-6.5361705,9.811439,-0.83077675,-0.21502456,0.035430185
1757213805349,5.475539,-6.5361705,9.811439,0.3933972,-0.09407325,0.089186326
1757213805407,6.1004257,-4.5322237,10.433931,0.3933972,-0.09407325,0.089186326
1757213805408,6.1004257,-4.5322237,10.433931,-0.2443461,-0.07086037,0.010995574
1757213805468,6.289568,-5.985504,10.522516,-0.2443461,-0.07086037,0.010995574
1757213805469,6.289568,-5.985504,10.522516,0.48380527,0.32986724,0.007330383
1757213805527,5.3462524,-6.0501475,10.955867,0.48380527,0.32986724,0.007330383
1757213805528,5.3462524,-6.0501475,10.955867,-0.35063666,0.29077184,0.06719518
1757213805588,6.10282,-5.5760956,11.2312,-0.35063666,0.29077184,0.06719518
1757213805590,6.10282,-5.5760956,11.2312,0.5729916,0.23823744,0.014660766
1757213805647,6.5337763,-7.4627266,12.411542,0.5729916,0.23823744,0.014660766
1757213805649,6.5337763,-7.4627266,12.411542,0.13927728,-0.007330383,0.10873401
1757213805707,7.323863,-4.3143516,13.5296335,0.13927728,-0.007330383,0.10873401
1757213805708,7.323863,-4.3143516,13.5296335,-0.24190263,0.04886922,0.11484267
1757213805767,6.8306575,-4.7405195,14.305355,-0.24190263,0.04886922,0.11484267
1757213805768,6.8306575,-4.7405195,14.305355,0.27488935,0.27122417,0.10140363
1757213805828,5.801151,-5.425261,10.2974615,0.27488935,0.27122417,0.10140363
1757213805829,5.801151,-5.425261,10.2974615,0.1881465,0.05375614,0.04642576
1757213805887,5.133168,-3.560178,9.9550905,0.1881465,0.05375614,0.04642576
1757213805888,5.133168,-3.560178,9.9550905,-0.047647487,0.41172317,-0.09040806
1757213805947,3.821146,-4.462792,8.719683,-0.047647487,0.41172317,-0.09040806
1757213805948,3.821146,-4.462792,8.719683,0.27977628,0.32620203,-0.087964594
1757213806007,3.0214825,-3.8618474,8.90643,0.27977628,0.32620203,-0.087964594
1757213806009,3.0214825,-3.8618474,8.90643,0.18570304,0.22235495,-0.062308256
1757213806067,3.5889084,-3.9863458,7.723695,0.18570304,0.22235495,-0.062308256
1757213806069,3.5889084,-3.9863458,7.723695,0.312763,0.21502456,-0.019547688
1757213806126,2.9855695,-2.966416,8.446744,0.312763,0.21502456,-0.019547688
1757213806128,2.9855695,-2.966416,8.446744,0.040317107,0.16737708,0.036651913
1757213806186,3.0310593,-2.9520507,7.860164,0.040317107,0.16737708,0.036651913
1757213806187,3.0310593,-2.9520507,7.860164,0.33353242,0.035430185,0.06719518
1757213806246,3.2920272,-1.8650831,7.5106106,0.33353242,0.035430185,0.06719518
1757213806248,3.2920272,-1.8650831,7.5106106,-0.028099801,0.03176499,0.028099801
1757213806308,2.4612393,-2.3989902,6.5337763,-0.028099801,0.03176499,0.028099801
1757213806309,2.4612393,-2.3989902,6.5337763,-0.14660765,-0.009773844,0.021991149
1757213806367,1.9752164,-2.0733786,5.98311,-0.14660765,-0.009773844,0.021991149
1757213806368,1.9752164,-2.0733786,5.98311,-0.39706242,-0.103847094,0.103847094
1757213806427,1.7501614,-2.2146366,4.948815,-0.39706242,-0.103847094,0.103847094
1757213806428,1.7501614,-2.2146366,4.948815,0.3286455,0.16615535,0.0720821
1757213806487,2.0278888,-0.15801731,4.4125137,0.3286455,0.16615535,0.0720821
1757213806488,2.0278888,-0.15801731,4.4125137,0.75136423,0.2773328,0.09773844
1757213806547,2.2218192,-1.3838485,6.179435,0.75136423,0.2773328,0.09773844
1757213806548,2.2218192,-1.3838485,6.179435,0.010995574,0.44593164,0.19058995
1757213806607,2.5091233,-0.20111294,9.394848,0.010995574,0.44593164,0.19058995
1757213806609,2.5091233,-0.20111294,9.394848,-0.028099801,0.037873644,-0.02076942
1757213806667,2.5570073,-2.2002714,8.714894,-0.028099801,0.037873644,-0.02076942
1757213806668,2.5570073,-2.2002714,8.714894,-0.25534168,-0.37384954,-0.07452556
1757213806726,3.181894,-1.4413095,7.541735,-0.25534168,-0.37384954,-0.07452556
1757213806727,3.181894,-1.4413095,7.541735,0.080634214,-0.25289822,-0.11728613
1757213806788,3.0478187,-2.195483,6.567295,0.080634214,-0.25289822,-0.11728613
1757213806789,3.0478187,-2.195483,6.567295,-0.29810223,-0.26145032,-0.14660765
1757213806846,2.2266076,-1.0606314,5.7365074,-0.29810223,-0.26145032,-0.14660765
1757213806848,2.2266076,-1.0606314,5.7365074,-0.40317106,-0.44959682,-0.0842994
1757213806907,3.0669725,-2.9975405,4.560954,-0.40317106,-0.44959682,-0.0842994
1757213806909,3.0669725,-2.9975405,4.560954,-0.14538592,-0.376293,0.028099801
1757213806965,3.2992098,-2.6360161,5.506664,-0.14538592,-0.376293,0.028099801
1757213806967,3.2992098,-2.6360161,5.506664,-0.6768387,-0.3567453,0.02076942
1757213807028,4.120421,-4.2544966,5.6215854,-0.6768387,-0.3567453,0.02076942
1757213807029,4.120421,-4.2544966,5.6215854,-0.21868975,-0.064751714,0.1600467
1757213807086,4.0198646,-3.4955344,7.443573,-0.21868975,-0.064751714,0.1600467
1757213807088,4.0198646,-3.4955344,7.443573,-0.7415904,-0.19547687,0.059864793
1757213807146,3.9695864,-3.2154129,8.343793,-0.7415904,-0.19547687,0.059864793
1757213807148,3.9695864,-3.2154129,8.343793,0.037873644,-0.061086524,-0.0061086523
1757213807205,3.5697548,-3.8594532,8.599973,0.037873644,-0.061086524,-0.0061086523
1757213807207,3.5697548,-3.8594532,8.599973,-0.22968534,0.05375614,0.07086037
1757213807268,3.9959226,-3.8259344,8.564059,-0.22968534,0.05375614,0.07086037
1757213807269,3.9959226,-3.8259344,8.564059,0.15515977,0.1160644,0.0036651916
1757213807326,4.2760444,-3.5051112,8.7125,0.15515977,0.1160644,0.0036651916
1757213807328,4.2760444,-3.5051112,8.7125,-0.26267207,0.0,-0.05375614
1757213807387,4.050989,-4.4484267,10.752359,-0.26267207,0.0,-0.05375614
1757213807388,4.050989,-4.4484267,10.752359,-0.036651913,0.09407325,-0.04153884
1757213807444,5.518635,-6.564901,10.611102,-0.036651913,0.09407325,-0.04153884
1757213807446,5.518635,-6.564901,10.611102,-0.034208454,0.05009095,-0.013439035
1757213807507,6.157887,-6.493075,12.109872,-0.034208454,0.05009095,-0.013439035
1757213807510,6.157887,-6.493075,12.109872,-0.30909783,-0.036651913,0.0720821
1757213807565,7.656657,-6.3949127,14.405911,-0.30909783,-0.036651913,0.0720821
1757213807567,7.656657,-6.3949127,14.405911,-0.032986723,0.06963864,-0.017104227
1757213807628,5.9519854,-7.5561004,13.278243,-0.032986723,0.06963864,-0.017104227
1757213807630,5.9519854,-7.5561004,13.278243,0.3811799,0.12461651,-0.11362094
1757213807686,5.044583,-3.8786068,11.346122,0.3811799,0.12461651,-0.11362094
1757213807688,5.044583,-3.8786068,11.346122,0.2443461,-0.02687807,-0.12950343
1757213807745,5.556942,-4.450821,8.762778,0.2443461,-0.02687807,-0.12950343
1757213807747,5.556942,-4.450821,8.762778,0.18692477,0.064751714,-0.02687807
1757213807805,4.132392,-4.5801077,10.007763,0.18692477,0.064751714,-0.02687807
1757213807807,4.132392,-4.5801077,10.007763,-0.16737708,0.0,-0.0036651916
1757213807865,4.771644,-5.758055,8.762778,-0.16737708,0.0,-0.0036651916
1757213807867,4.771644,-5.758055,8.762778,-0.19425514,-0.1160644,-0.056199603
1757213807924,4.120421,-4.232949,9.8042555,-0.19425514,-0.1160644,-0.056199603
1757213807925,4.120421,-4.232949,9.8042555,0.064751714,0.10629055,0.035430185
1757213807986,4.2784386,-4.4915223,8.875306,0.064751714,0.10629055,0.035430185
1757213807987,4.2784386,-4.4915223,8.875306,0.33475417,0.21380283,0.095294975
1757213808045,3.6272156,-3.7852328,8.250419,0.33475417,0.21380283,0.095294975
1757213808047,3.6272156,-3.7852328,8.250419,0.2321288,0.24190263,0.017104227
1757213808106,2.908955,-3.466804,7.599196,0.2321288,0.24190263,0.017104227
1757213808108,2.908955,-3.466804,7.599196,0.27366763,0.32986724,0.13194689
1757213808164,2.6264393,-3.323152,7.539341,0.27366763,0.32986724,0.13194689
1757213808165,2.6264393,-3.323152,7.539341,-0.14660765,0.25778514,0.10873401
1757213808225,2.1212628,-2.3223755,6.981492,-0.14660765,0.25778514,0.10873401
1757213808227,2.1212628,-2.3223755,6.981492,0.056199603,0.09407325,0.043982297
1757213808284,1.70946,-1.9512744,6.0501475,0.056199603,0.09407325,0.043982297
1757213808285,1.70946,-1.9512744,6.0501475,0.118507855,-0.07086037,0.04886922
1757213808346,1.7357962,-1.3790601,4.51307,0.118507855,-0.07086037,0.04886922
1757213808347,1.7357962,-1.3790601,4.51307,0.2919936,-0.1563815,-0.028099801
1757213808405,1.970428,-1.2449849,3.9911342,0.2919936,-0.1563815,-0.028099801
1757213808407,1.970428,-1.2449849,3.9911342,0.41050145,0.2406809,-0.09040806
1757213808462,1.5705963,-0.35434186,5.5617304,0.41050145,0.2406809,-0.09040806
1757213808463,1.5705963,-0.35434186,5.5617304,0.6646214,0.593761,-0.07086037
1757213808525,2.870648,-2.0015526,9.26556,0.6646214,0.593761,-0.07086037
1757213808527,2.870648,-2.0015526,9.26556,-0.66339964,-0.014660766,-0.043982297
1757213808585,2.7485435,-4.661511,9.928755,-0.66339964,-0.014660766,-0.043982297
1757213808587,2.7485435,-4.661511,9.928755,-0.5314528,-0.25045475,0.012217305
1757213808645,3.1028855,-2.2409728,8.956709,-0.5314528,-0.25045475,0.012217305
1757213808646,3.1028855,-2.2409728,8.956709,-0.0012217305,-0.21624629,-0.095294975
1757213808706,3.1986535,-1.4772224,7.120356,-0.0012217305,-0.21624629,-0.095294975
1757213808708,3.1986535,-1.4772224,7.120356,-0.17715092,-0.16371189,-0.11484267
1757213808765,2.7700913,-2.2170308,6.229713,-0.17715092,-0.16371189,-0.11484267
1757213808766,2.7700913,-2.2170308,6.229713,-0.6426302,-0.07819075,-0.172264
1757213808826,2.243367,-1.9991584,5.4324436,-0.6426302,-0.07819075,-0.172264
1757213808827,2.243367,-1.9991584,5.4324436,-0.38362336,-0.073303826,-0.17104226
1757213808884,2.6671407,-2.4612393,5.032612,-0.38362336,-0.073303826,-0.17104226
1757213808885,2.6671407,-2.4612393,5.032612,-0.111177474,-0.080634214,-0.10262536
1757213808946,2.882619,-2.327164,5.6120086,-0.111177474,-0.080634214,-0.10262536
1757213808947,2.882619,-2.327164,5.6120086,-0.10629055,-0.16737708,-0.073303826
1757213809006,3.1986535,-3.4620156,6.337452,-0.10629055,-0.16737708,-0.073303826
1757213809007,3.1986535,-3.4620156,6.337452,0.13194689,-0.12461651,-0.03176499
1757213809066,4.120421,-3.3255463,6.9120603,0.13194689,-0.12461651,-0.03176499
1757213809068,4.120421,-3.3255463,6.9120603,-0.32620203,-0.09773844,0.0012217305
1757213809120,3.9193082,-3.6774938,8.161834,-0.32620203,-0.09773844,0.0012217305
1757213809122,3.9193082,-3.6774938,8.161834,0.10629055,-0.012217305,-0.030543262
1757213809185,4.8219223,-4.4220905,8.166622,0.10629055,-0.012217305,-0.030543262
1757213809187,4.8219223,-4.4220905,8.166622,-0.2565634,-0.20647246,-0.019547688
1757213809244,4.309563,-4.0677485,8.671799,-0.2565634,-0.20647246,-0.019547688
1757213809246,4.309563,-4.0677485,8.671799,0.17715092,-0.009773844,-0.0720821
1757213809305,4.249708,-5.195418,8.896853,0.17715092,-0.009773844,-0.0720821
1757213809306,4.249708,-5.195418,8.896853,-0.34697145,-0.05131268,0.029321533
1757213809364,4.1922474,-4.8386817,9.545682,-0.34697145,-0.05131268,0.029321533
1757213809366,4.1922474,-4.8386817,9.545682,0.064751714,0.0036651916,0.0061086523
1757213809424,5.2528787,-5.118803,9.97185,0.064751714,0.0036651916,0.0061086523
1757213809426,5.2528787,-5.118803,9.97185,-0.07819075,0.030543262,-0.0036651916
1757213809484,6.703765,-5.626374,11.370064,-0.07819075,0.030543262,-0.0036651916
1757213809485,6.703765,-5.626374,11.370064,-0.0842994,-0.06352998,0.04153884
1757213809545,7.201759,-7.086837,13.402741,-0.0842994,-0.06352998,0.04153884
1757213809547,7.201759,-7.086837,13.402741,-0.21991149,-0.030543262,-0.02565634
1757213809607,6.3111157,-3.3135753,13.443442,-0.21991149,-0.030543262,-0.02565634
1757213809609,6.3111157,-3.3135753,13.443442,-0.3286455,-0.028099801,-0.10140363
1757213809666,7.0581064,-6.825869,11.669339,-0.3286455,-0.028099801,-0.10140363
1757213809668,7.0581064,-6.825869,11.669339,-0.08307768,0.081855945,-0.059864793
1757213809725,5.2648497,-4.6112323,11.281479,-0.08307768,0.081855945,-0.059864793
1757213809726,5.2648497,-4.6112323,11.281479,0.12461651,0.042760566,-0.22724187
1757213809781,5.2504845,-5.7125654,8.580819,0.12461651,0.042760566,-0.22724187
1757213809781,5.2504845,-5.7125654,8.580819,0.017104227,-0.0036651916,-0.13439035
1757213809840,4.4316673,-4.295198,8.827422,0.017104227,-0.0036651916,-0.13439035
1757213809840,4.4316673,-4.295198,8.827422,0.10873401,0.18570304,-0.16126843
1757213809901,4.3023806,-4.9344497,8.954314,0.10873401,0.18570304,-0.16126843
1757213809901,4.3023806,-4.9344497,8.954314,-0.1600467,0.07086037,0.056199603
1757213809963,4.0318356,-5.4420204,8.92319,-0.1600467,0.07086037,0.056199603
1757213809965,4.0318356,-5.4420204,8.92319,0.1966986,0.047647487,0.0720821
1757213810025,4.225766,-3.7349546,8.078036,0.1966986,0.047647487,0.0720821
1757213810027,4.225766,-3.7349546,8.078036,-0.04153884,0.10873401,0.0842994
1757213810085,3.6415808,-3.5410242,7.6111674,-0.04153884,0.10873401,0.0842994
1757213810086,3.6415808,-3.5410242,7.6111674,-0.087964594,0.15027285,0.103847094
1757213810146,3.5697548,-3.3662477,6.7253127,-0.087964594,0.15027285,0.103847094
1757213810148,3.5697548,-3.3662477,6.7253127,-0.35430184,-0.017104227,0.112399206
1757213810206,2.4253263,-2.585738,5.935226,-0.35430184,-0.017104227,0.112399206
1757213810208,2.4253263,-2.585738,5.935226,-0.38362336,-0.27122417,0.02321288
1757213810266,2.60968,-2.5761611,5.853823,-0.38362336,-0.27122417,0.02321288
1757213810267,2.60968,-2.5761611,5.853823,-0.2761111,-0.26633725,0.087964594
1757213810323,2.0446482,-2.621651,4.259285,-0.2761111,-0.26633725,0.087964594
1757213810325,2.0446482,-2.621651,4.259285,0.3652974,-0.30787608,0.13927728
1757213810384,2.9712043,-0.9696517,3.8833952,0.3652974,-0.30787608,0.13927728
1757213810386,2.9712043,-0.9696517,3.8833952,0.49968776,0.28344148,0.11728613
1757213810443,3.916914,-1.9393034,5.884948,0.49968776,0.28344148,0.11728613
1757213810445,3.916914,-1.9393034,5.884948,0.39095375,0.61941737,0.06963864
1757213810504,2.7341783,-3.4045548,8.767567,0.39095375,0.61941737,0.06963864
1757213810506,2.7341783,-3.4045548,8.767567,-0.07452556,0.2003638,0.0036651916
1757213810563,3.4739866,-3.58412,8.537724,-0.07452556,0.2003638,0.0036651916
1757213810565,3.4739866,-3.58412,8.537724,-0.41538838,-0.27366763,-0.0036651916
1757213810624,3.5865142,-3.620033,7.599196,-0.41538838,-0.27366763,-0.0036651916
1757213810625,3.5865142,-3.620033,7.599196,0.09896017,0.008552114,-0.010995574
1757213810684,3.277662,-1.7262194,7.120356,0.09896017,0.008552114,-0.010995574
1757213810685,3.277662,-1.7262194,7.120356,-0.23701571,-0.25045475,-0.1160644
1757213810744,3.086126,-2.5689783,6.5696893,-0.23701571,-0.25045475,-0.1160644
1757213810746,3.086126,-2.5689783,6.5696893,-0.61453044,-0.34697145,-0.064751714
1757213810804,2.8898015,-3.145981,6.217742,-0.61453044,-0.34697145,-0.064751714
1757213810805,2.8898015,-3.145981,6.217742,-0.5546656,-0.35185838,-0.065973446
1757213810864,3.6655228,-2.9400797,4.537012,-0.5546656,-0.35185838,-0.065973446
1757213810865,3.6655228,-2.9400797,4.537012,-0.267559,-0.3005457,-0.07941248
1757213810922,3.6894648,-3.2944214,4.510676,-0.267559,-0.3005457,-0.07941248
1757213810924,3.6894648,-3.2944214,4.510676,-0.04642576,-0.1441642,-0.030543262
1757213810984,4.0581717,-4.9464207,5.2959743,-0.04642576,-0.1441642,-0.030543262
1757213810986,4.0581717,-4.9464207,5.2959743,-0.4129449,-0.13439035,0.064751714
1757213811042,3.7780502,-4.156334,6.6367273,-0.4129449,-0.13439035,0.064751714
1757213811044,3.7780502,-4.156334,6.6367273,-0.29565877,0.004886922,0.09285152
1757213811104,4.644751,-4.5920787,6.7947445,-0.29565877,0.004886922,0.09285152
1757213811106,4.644751,-4.5920787,6.7947445,-0.19181168,-0.080634214,0.034208454
1757213811162,3.9360676,-4.891354,7.1466923,-0.19181168,-0.080634214,0.034208454
1757213811164,3.9360676,-4.891354,7.1466923,-0.26389378,-0.1160644,0.04642576
1757213811221,4.4460325,-4.8338933,7.699753,-0.26389378,-0.1160644,0.04642576
1757213811223,4.4460325,-4.8338933,7.699753,-0.019547688,-0.012217305,0.02687807
1757213811281,4.486734,-5.4300494,7.347805,-0.019547688,-0.012217305,0.02687807
1757213811283,4.486734,-5.4300494,7.347805,-0.07574729,-0.10140363,0.073303826
1757213811343,5.6215854,-5.899313,8.032547,-0.07574729,-0.10140363,0.073303826
1757213811345,5.6215854,-5.899313,8.032547,-0.02687807,-0.04520403,-0.012217305
1757213811403,5.17387,-5.8442464,8.039729,-0.02687807,-0.04520403,-0.012217305
1757213811404,5.17387,-5.8442464,8.039729,0.05497787,0.009773844,0.008552114
1757213811463,4.879383,-6.0166287,8.9758625,0.05497787,0.009773844,0.008552114
1757213811465,4.879383,-6.0166287,8.9758625,-0.057421334,0.08307768,-0.07086037
1757213811522,6.7851677,-5.6527104,8.961497,-0.057421334,0.08307768,-0.07086037
1757213811524,6.7851677,-5.6527104,8.961497,0.039095376,-0.007330383,0.008552114
1757213811582,6.4068837,-7.455544,10.225636,0.039095376,-0.007330383,0.008552114
1757213811584,6.4068837,-7.455544,10.225636,0.0,-0.004886922,0.002443461
1757213811642,7.845799,-7.920019,10.737994,0.0,-0.004886922,0.002443461
1757213811643,7.845799,-7.920019,10.737994,-0.32620203,-0.09285152,0.062308256
1757213811702,7.905654,-7.0724716,11.535264,-0.32620203,-0.09285152,0.062308256
1757213811703,7.905654,-7.0724716,11.535264,-0.052534413,0.07819075,-0.16615535
1757213811761,6.3781533,-6.2823853,9.222465,-0.052534413,0.07819075,-0.16615535
1757213811762,6.3781533,-6.2823853,9.222465,-0.18936823,0.2125811,-0.18692477
1757213811824,5.3701944,-6.1985884,7.3286514,-0.18936823,0.2125811,-0.18692477
1757213811826,5.3701944,-6.1985884,7.3286514,-0.3286455,0.096516706,-0.065973446
1757213811882,4.663905,-6.5840545,6.9168487,-0.3286455,0.096516706,-0.065973446
1757213811884,4.663905,-6.5840545,6.9168487,-0.3042109,-0.14294247,-0.058643065
1757213811943,5.092467,-5.7125654,7.101202,-0.3042109,-0.14294247,-0.058643065
1757213811944,5.092467,-5.7125654,7.101202,-0.63041294,-0.09773844,0.12950343
1757213812002,5.5018754,-7.299921,8.307879,-0.63041294,-0.09773844,0.12950343
1757213812004,5.5018754,-7.299921,8.307879,0.31031954,0.028099801,0.0842994
1757213812062,5.590461,-6.409278,6.9838862,0.31031954,0.028099801,0.0842994
1757213812064,5.590461,-6.409278,6.9838862,0.344528,-0.06963864,-0.059864793
1757213812121,5.171476,-5.3941364,6.7348895,0.344528,-0.06963864,-0.059864793
1757213812124,5.171476,-5.3941364,6.7348895,0.2406809,0.15882497,-0.0036651916
1757213812183,5.1116204,-5.5162406,6.9767036,0.2406809,0.15882497,-0.0036651916
1757213812184,5.1116204,-5.5162406,6.9767036,0.17959438,0.21013765,-0.019547688
1757213812241,4.414908,-5.583278,6.531382,0.17959438,0.21013765,-0.019547688
1757213812243,4.414908,-5.583278,6.531382,-0.034208454,0.056199603,-0.09773844
1757213812304,3.2920272,-3.5673606,5.3606176,-0.034208454,0.056199603,-0.09773844
1757213812306,3.2920272,-3.5673606,5.3606176,0.08674286,-0.15393804,-0.17104226
1757213812362,2.695871,-3.083732,4.7261543,0.08674286,-0.15393804,-0.17104226
1757213812363,2.695871,-3.083732,4.7261543,0.010995574,-0.004886922,-0.040317107
1757213812423,2.7868507,-2.944868,4.10845,0.010995574,-0.004886922,-0.040317107
1757213812424,2.7868507,-2.944868,4.10845,-0.118507855,0.029321533,-0.010995574
1757213812481,2.7246015,-2.1978772,3.8618474,-0.118507855,0.029321533,-0.010995574
1757213812483,2.7246015,-2.1978772,3.8618474,0.3848451,0.31887165,0.05497787
1757213812543,2.7461493,-2.4396915,4.853047,0.3848451,0.31887165,0.05497787
1757213812545,2.7461493,-2.4396915,4.853047,0.41905355,0.3115413,0.019547688
1757213812602,3.13401,-3.323152,6.9982514,0.41905355,0.3115413,0.019547688
1757213812604,3.13401,-3.323152,6.9982514,-0.02076942,0.14905111,0.05131268
1757213812664,4.355053,-5.231331,7.8410106,-0.02076942,0.14905111,0.05131268
1757213812665,4.355053,-5.231331,7.8410106,-0.29810223,-0.19303341,-0.008552114
1757213812722,4.630386,-5.0493712,7.9990277,-0.29810223,-0.19303341,-0.008552114
1757213812723,4.630386,-5.0493712,7.9990277,0.06963864,-0.05131268,0.0
1757213812782,4.867412,-3.608062,6.955156,0.06963864,-0.05131268,0.0
1757213812783,4.867412,-3.608062,6.955156,0.09896017,-0.119729586,0.018325957
1757213812840,4.098873,-3.5577838,6.540959,0.09896017,-0.119729586,0.018325957
1757213812842,4.098873,-3.5577838,6.540959,-0.11362094,-0.080634214,0.004886922
1757213812903,3.4356794,-3.6008794,6.4404025,-0.11362094,-0.080634214,0.004886922
1757213812905,3.4356794,-3.6008794,6.4404025,-0.21624629,-0.1282817,0.018325957
1757213812961,3.6343982,-3.6032736,5.1930237,-0.21624629,-0.1282817,0.018325957
1757213812963,3.6343982,-3.6032736,5.1930237,-0.056199603,-0.19547687,0.009773844
1757213813022,3.6966474,-3.6056678,4.642357,-0.056199603,-0.19547687,0.009773844
1757213813024,3.6966474,-3.6056678,4.642357,-0.34208453,-0.20280726,0.058643065
1757213813082,3.9695864,-3.7588966,5.3103395,-0.34208453,-0.20280726,0.058643065
1757213813084,3.9695864,-3.7588966,5.3103395,-0.11728613,-0.13194689,0.043982297
1757213813141,3.9097314,-5.195418,5.499481,-0.11728613,-0.13194689,0.043982297
1757213813143,3.9097314,-5.195418,5.499481,-0.22235495,-0.064751714,0.040317107
1757213813202,4.596867,-4.232949,6.066907,-0.22235495,-0.064751714,0.040317107
1757213813204,4.596867,-4.232949,6.066907,-0.18692477,-0.17104226,0.042760566
1757213813257,4.211401,-4.975151,6.5481415,-0.18692477,-0.17104226,0.042760566
1757213813258,4.211401,-4.975151,6.5481415,-0.10140363,-0.058643065,0.05497787
1757213813317,4.630386,-4.608838,6.670246,-0.10140363,-0.058643065,0.05497787
1757213813318,4.630386,-4.608838,6.670246,-0.0720821,-0.02687807,0.036651913
1757213813380,4.7884035,-4.6710877,6.277597,-0.0720821,-0.02687807,0.036651913
1757213813381,4.7884035,-4.6710877,6.277597,0.28221974,0.043982297,-0.035430185
1757213813441,5.068525,-5.580884,6.691794,0.28221974,0.043982297,-0.035430185
1757213813442,5.068525,-5.580884,6.691794,0.1563815,-0.036651913,0.0
1757213813502,4.9775453,-5.0397944,6.6630635,0.1563815,-0.036651913,0.0
1757213813504,4.9775453,-5.0397944,6.6630635,-0.042760566,-0.028099801,-0.009773844
1757213813562,5.2289367,-6.215348,7.6614456,-0.042760566,-0.028099801,-0.009773844
1757213813563,5.2289367,-6.215348,7.6614456,-0.028099801,0.021991149,-0.0036651916
1757213813625,5.923255,-6.160281,7.141904,-0.028099801,0.021991149,-0.0036651916
1757213813627,5.923255,-6.160281,7.141904,-0.09407325,-0.15515977,-0.052534413
1757213813681,6.0884547,-6.9767036,8.425196,-0.09407325,-0.15515977,-0.052534413
1757213813682,6.0884547,-6.9767036,8.425196,-0.16126843,0.004886922,0.007330383
1757213813742,6.373365,-6.3206925,8.707711,-0.16126843,0.004886922,0.007330383
1757213813744,6.373365,-6.3206925,8.707711,0.042760566,0.028099801,-0.028099801
1757213813800,6.6606693,-7.2089415,9.112331,0.042760566,0.028099801,-0.028099801
1757213813802,6.6606693,-7.2089415,9.112331,0.057421334,-0.06841691,-0.018325957
1757213813861,7.6734166,-6.7803793,10.170568,0.057421334,-0.06841691,-0.018325957
1757213813863,7.6734166,-6.7803793,10.170568,-0.018325957,0.0842994,-0.04153884
1757213813920,6.7731967,-7.0102224,9.564836,-0.018325957,0.0842994,-0.04153884
1757213813922,6.7731967,-7.0102224,9.564836,0.004886922,0.032986723,-0.09896017
1757213813980,6.5816603,-6.9120603,9.351752,0.004886922,0.032986723,-0.09896017
1757213813982,6.5816603,-6.9120603,9.351752,0.029321533,0.052534413,-0.04520403
1757213814041,7.005434,-6.2584434,8.123527,0.029321533,0.052534413,-0.04520403
1757213814043,7.005434,-6.2584434,8.123527,0.16615535,0.039095376,-0.017104227
1757213814082,6.0381765,-5.719748,7.8649526,0.16615535,0.039095376,-0.017104227
1757213814084,6.0381765,-5.719748,7.8649526,-0.029321533,0.047647487,0.002443461
1757213814143,5.5258174,-6.160281,7.2831616,-0.029321533,0.047647487,0.002443461
1757213814145,5.5258174,-6.160281,7.2831616,0.07941248,-0.030543262,-0.047647487
1757213814201,5.0374002,-5.971139,7.764396,0.07941248,-0.030543262,-0.047647487
1757213814203,5.0374002,-5.971139,7.764396,-0.07574729,0.057421334,-0.009773844
1757213814261,5.109226,-5.243302,7.0605006,-0.07574729,0.057421334,-0.009773844
1757213814263,5.109226,-5.243302,7.0605006,0.09040806,0.034208454,-0.018325957
1757213814323,5.7029886,-5.7149596,7.4028716,0.09040806,0.034208454,-0.018325957
1757213814325,5.7029886,-5.7149596,7.4028716,0.014660766,0.12950343,-0.017104227
1757213814382,5.5018754,-5.1762643,7.055712,0.014660766,0.12950343,-0.017104227
1757213814384,5.5018754,-5.1762643,7.055712,0.019547688,0.16615535,-0.052534413
1757213814442,5.0996494,-5.391742,7.359776,0.019547688,0.16615535,-0.052534413
1757213814443,5.0996494,-5.391742,7.359776,0.172264,0.29932398,-0.103847094
1757213814502,4.7022123,-4.3861775,7.5345526,0.172264,0.29932398,-0.103847094
1757213814504,4.7022123,-4.3861775,7.5345526,0.15760323,0.33841935,-0.095294975
1757213814561,4.177882,-4.4795513,6.399701,0.15760323,0.33841935,-0.095294975
1757213814563,4.177882,-4.4795513,6.399701,0.39095375,0.33841935,-0.040317107
1757213814620,3.4261026,-3.3087866,5.604826,0.39095375,0.33841935,-0.040317107
1757213814622,3.4261026,-3.3087866,5.604826,0.24923302,0.2932153,-0.040317107
1757213814681,2.645593,-2.9592333,5.133168,0.24923302,0.2932153,-0.040317107
1757213814683,2.645593,-2.9592333,5.133168,0.1600467,0.27000242,0.080634214
1757213814741,2.3056161,-2.8658595,4.8458643,0.1600467,0.27000242,0.080634214
1757213814742,2.3056161,-2.8658595,4.8458643,0.33108896,0.25778514,0.10262536
1757213814801,2.719813,-2.219425,4.5920787,0.33108896,0.25778514,0.10262536
1757213814803,2.719813,-2.219425,4.5920787,0.43860126,0.35063666,0.16982053
1757213814860,1.8650831,-2.2984335,6.50744,0.43860126,0.35063666,0.16982053
1757213814862,1.8650831,-2.2984335,6.50744,0.36651915,0.28099802,0.1563815
1757213814920,3.9025488,-2.815581,7.3286514,0.36651915,0.28099802,0.1563815
1757213814922,3.9025488,-2.815581,7.3286514,-0.028099801,0.008552114,0.2125811
1757213814980,3.7181952,-3.5936968,8.896853,-0.028099801,0.008552114,0.2125811
1757213814982,3.7181952,-3.5936968,8.896853,-0.24312437,-0.15027285,0.12339478
1757213815040,4.187459,-3.406949,8.401254,-0.24312437,-0.15027285,0.12339478
1757213815042,4.187459,-3.406949,8.401254,-0.07819075,-0.12583824,0.073303826
1757213815100,3.8642416,-3.3423057,7.9248075,-0.07819075,-0.12583824,0.073303826
1757213815102,3.8642416,-3.3423057,7.9248075,-0.16982053,-0.09285152,-0.02687807
1757213815162,3.4500446,-2.7964275,7.347805,-0.16982053,-0.09285152,-0.02687807
1757213815163,3.4500446,-2.7964275,7.347805,-0.2565634,-0.081855945,-0.04520403
1757213815218,3.3135753,-3.466804,7.21373,-0.2565634,-0.081855945,-0.04520403
1757213815218,3.3135753,-3.466804,7.21373,-0.33841935,-0.12461651,-0.040317107
1757213815280,2.8778305,-3.0693667,7.050924,-0.33841935,-0.12461651,-0.040317107
1757213815282,2.8778305,-3.0693667,7.050924,-0.3885103,-0.23090707,-0.013439035
1757213815340,3.4021606,-3.1747115,6.241684,-0.3885103,-0.23090707,-0.013439035
1757213815342,3.4021606,-3.1747115,6.241684,-0.19058995,-0.2406809,-0.02076942
1757213815401,3.0119057,-3.739743,5.8562174,-0.19058995,-0.2406809,-0.02076942
1757213815402,3.0119057,-3.739743,5.8562174,-0.12705997,-0.22968534,-0.035430185
1757213815460,3.4715924,-3.7181952,5.353435,-0.12705997,-0.22968534,-0.035430185
1757213815461,3.4715924,-3.7181952,5.353435,-0.30176744,-0.24678956,0.012217305
1757213815521,4.072537,-4.685453,5.6120086,-0.30176744,-0.24678956,0.012217305
1757213815523,4.072537,-4.685453,5.6120086,-0.56077427,-0.26389378,0.10751228
1757213815580,3.857059,-5.3606176,6.9479733,-0.56077427,-0.26389378,0.10751228
1757213815582,3.857059,-5.3606176,6.9479733,-0.2968805,-0.20280726,0.034208454
1757213815640,4.3981485,-5.365406,6.6247563,-0.2968805,-0.20280726,0.034208454
1757213815641,4.3981485,-5.365406,6.6247563,0.10751228,-0.2443461,-0.030543262
1757213815700,4.630386,-4.501099,6.7348895,0.10751228,-0.2443461,-0.030543262
1757213815701,4.630386,-4.501099,6.7348895,-0.07086037,-0.10873401,0.042760566
1757213815759,4.3718123,-5.494693,7.0844426,-0.07086037,-0.10873401,0.042760566
1757213815761,4.3718123,-5.494693,7.0844426,0.18325958,-0.015882496,0.087964594
1757213815817,5.0158525,-4.9320555,6.9000893,0.18325958,-0.015882496,0.087964594
1757213815820,5.0158525,-4.9320555,6.9000893,-0.034208454,0.014660766,0.064751714
1757213815880,5.291186,-5.231331,7.1347213,-0.034208454,0.014660766,0.064751714
1757213815881,5.291186,-5.231331,7.1347213,0.0061086523,-0.0012217305,0.057421334
1757213815940,4.6662993,-5.070919,7.338228,0.0061086523,-0.0012217305,0.057421334
1757213815941,4.6662993,-5.070919,7.338228,-0.037873644,0.0012217305,0.013439035
1757213816000,4.546589,-5.8083334,7.872135,-0.037873644,0.0012217305,0.013439035
1757213816001,4.546589,-5.8083334,7.872135,-0.04153884,0.036651913,0.029321533
1757213816059,5.5282116,-6.14831,7.788338,-0.04153884,0.036651913,0.029321533
1757213816060,5.5282116,-6.14831,7.788338,0.10995574,0.021991149,-0.05375614
1757213816118,5.106832,-6.7013707,8.286332,0.10995574,0.021991149,-0.05375614
1757213816120,5.106832,-6.7013707,8.286332,-0.04520403,-0.035430185,-0.017104227
1757213816176,6.2967505,-6.38773,9.239224,-0.04520403,-0.035430185,-0.017104227
1757213816177,6.2967505,-6.38773,9.239224,-0.376293,-0.0012217305,0.008552114
1757213816237,5.592855,-6.88333,10.364499,-0.376293,-0.0012217305,0.008552114
1757213816238,5.592855,-6.88333,10.364499,0.37995818,0.04886922,-0.02565634
1757213816296,7.979874,-7.3789296,10.723629,0.37995818,0.04886922,-0.02565634
1757213816297,7.979874,-7.3789296,10.723629,-0.13561209,0.0,0.02076942
1757213816359,6.145916,-6.7923503,10.601525,-0.13561209,0.0,0.02076942
1757213816361,6.145916,-6.7923503,10.601525,0.29932398,0.095294975,-0.035430185
1757213816419,5.829881,-6.5122285,9.82341,0.29932398,0.095294975,-0.035430185
1757213816421,5.829881,-6.5122285,9.82341,0.19914207,0.12217305,0.042760566
1757213816480,6.078878,-5.8945246,8.669404,0.19914207,0.12217305,0.042760566
1757213816481,6.078878,-5.8945246,8.669404,0.27488935,0.05009095,-0.12217305
1757213816538,4.960786,-5.4899044,7.513005,0.27488935,0.05009095,-0.12217305
1757213816540,4.960786,-5.4899044,7.513005,0.12339478,0.1001819,-0.018325957
1757213816600,4.6279917,-6.6750345,8.602366,0.12339478,0.1001819,-0.018325957
1757213816602,4.6279917,-6.6750345,8.602366,0.0,0.14905111,0.13439035
1757213816656,4.5801077,-5.3558292,8.377312,0.0,0.14905111,0.13439035
1757213816658,4.5801077,-5.3558292,8.377312,0.22479841,0.15271631,0.019547688
1757213816719,5.092467,-3.9935284,7.345411,0.22479841,0.15271631,0.019547688
1757213816720,5.092467,-3.9935284,7.345411,0.6047566,0.13316862,-0.112399206
1757213816777,5.305551,-3.845088,6.9383965,0.6047566,0.13316862,-0.112399206
1757213816778,5.305551,-3.845088,6.9383965,0.16982053,0.23335053,-0.17592919
1757213816835,4.185065,-4.4939165,8.003817,0.16982053,0.23335053,-0.17592919
1757213816836,4.185065,-4.4939165,8.003817,-0.073303826,0.25534168,-0.12950343
1757213816897,3.9145198,-4.036624,8.0684595,-0.073303826,0.25534168,-0.12950343
1757213816898,3.9145198,-4.036624,8.0684595,0.034208454,0.2602286,-0.16249016
1757213816957,2.9496565,-3.8905778,6.9599442,0.034208454,0.2602286,-0.16249016
1757213816958,2.9496565,-3.8905778,6.9599442,0.10873401,0.16615535,-0.105068825
1757213817017,2.4516625,-2.4229321,5.17387,0.10873401,0.16615535,-0.105068825
1757213817019,2.4516625,-2.4229321,5.17387,0.009773844,-0.052534413,-0.089186326
1757213817077,2.5354595,-2.5450363,5.0374002,0.009773844,-0.052534413,-0.089186326
1757213817079,2.5354595,-2.5450363,5.0374002,-0.07574729,-0.14538592,-0.010995574
1757213817136,2.4732103,-2.2218192,4.8985367,-0.07574729,-0.14538592,-0.010995574
1757213817138,2.4732103,-2.2218192,4.8985367,-0.11484267,-0.16249016,0.06352998
1757213817197,2.6910827,-2.171541,5.5617304,-0.11484267,-0.16249016,0.06352998
1757213817198,2.6910827,-2.171541,5.5617304,0.14172074,0.13439035,0.095294975
1757213817255,3.5745432,-3.107674,6.9743094,0.14172074,0.13439035,0.095294975
1757213817257,3.5745432,-3.107674,6.9743094,0.1441642,0.1160644,0.18325958
1757213817316,4.0653543,-3.5889084,7.577648,0.1441642,0.1160644,0.18325958
1757213817318,4.0653543,-3.5889084,7.577648,-0.10140363,-0.04886922,0.1600467
1757213817377,4.414908,-3.4763808,8.604761,-0.10140363,-0.04886922,0.1600467
1757213817378,4.414908,-3.4763808,8.604761,-0.27977628,-0.21624629,0.096516706
1757213817438,4.96318,-4.1371803,7.8769236,-0.27977628,-0.21624629,0.096516706
1757213817439,4.96318,-4.1371803,7.8769236,-0.08552113,0.012217305,0.05375614
1757213817496,4.1299977,-4.122815,7.908048,-0.08552113,0.012217305,0.05375614
1757213817498,4.1299977,-4.122815,7.908048,-0.09773844,0.029321533,-0.09162979
1757213817557,3.5817258,-3.0478187,7.410054,-0.09773844,0.029321533,-0.09162979
1757213817559,3.5817258,-3.0478187,7.410054,-0.21746802,0.0036651916,-0.09040806
1757213817618,3.596091,-3.086126,6.8091097,-0.21746802,0.0036651916,-0.09040806
1757213817621,3.596091,-3.086126,6.8091097,-0.16493362,-0.17715092,-0.13072516
1757213817677,3.3566709,-2.980781,5.693412,-0.16493362,-0.17715092,-0.13072516
1757213817679,3.3566709,-2.980781,5.693412,-0.42149702,-0.2761111,-0.13194689
1757213817736,3.1771057,-2.753332,5.104438,-0.42149702,-0.2761111,-0.13194689
1757213817737,3.1771057,-2.753332,5.104438,-0.15271631,-0.22479841,-0.1160644
1757213817796,3.881001,-3.3183637,5.118803,-0.15271631,-0.22479841,-0.1160644
1757213817797,3.881001,-3.3183637,5.118803,-0.10751228,-0.1966986,0.0
1757213817856,3.3135753,-3.9336734,5.729325,-0.10751228,-0.1966986,0.0
1757213817857,3.3135753,-3.9336734,5.729325,-0.0720821,-0.344528,0.035430185
1757213817916,4.1515455,-4.462792,5.7748146,-0.0720821,-0.344528,0.035430185
1757213817918,4.1515455,-4.462792,5.7748146,-0.2125811,-0.09773844,0.002443461
1757213817976,4.7764325,-4.4963107,7.041347,-0.2125811,-0.09773844,0.002443461
1757213817977,4.7764325,-4.4963107,7.041347,-0.28099802,-0.16249016,0.032986723
1757213818036,4.6686935,-5.0661306,6.706159,-0.28099802,-0.16249016,0.032986723
1757213818037,4.6686935,-5.0661306,6.706159,-0.043982297,-0.07819075,0.002443461
1757213818096,4.876989,-4.915296,7.57286,-0.043982297,-0.07819075,0.002443461
1757213818097,4.876989,-4.915296,7.57286,0.02687807,0.059864793,0.007330383
1757213818155,4.76925,-4.594473,7.065289,0.02687807,0.059864793,0.007330383
1757213818157,4.76925,-4.594473,7.065289,0.07696902,0.017104227,-0.007330383
1757213818214,5.559336,-5.267244,7.335834,0.07696902,0.017104227,-0.007330383
1757213818216,5.559336,-5.267244,7.335834,0.032986723,0.1441642,0.0012217305
1757213818276,5.207389,-5.729325,7.6494746,0.032986723,0.1441642,0.0012217305
1757213818277,5.207389,-5.729325,7.6494746,-0.019547688,0.065973446,-0.06841691
1757213818335,4.9655743,-5.1571107,8.401254,-0.019547688,0.065973446,-0.06841691
1757213818336,4.9655743,-5.1571107,8.401254,-0.02565634,0.04520403,-0.042760566
1757213818396,5.923255,-5.29358,7.773973,-0.02565634,0.04520403,-0.042760566
1757213818398,5.923255,-5.29358,7.773973,0.12950343,-0.019547688,-0.02076942
1757213818455,5.0158525,-6.1626754,9.299079,0.12950343,-0.019547688,-0.02076942
1757213818457,5.0158525,-6.1626754,9.299079,-0.45204028,0.057421334,-0.0842994
1757213818515,6.859388,-5.3103395,9.842564,-0.45204028,0.057421334,-0.0842994
1757213818516,6.859388,-5.3103395,9.842564,0.17104226,0.05497787,-0.20647246
1757213818576,6.1219735,-6.4667387,8.784326,0.17104226,0.05497787,-0.20647246
1757213818578,6.1219735,-6.4667387,8.784326,-0.09407325,-0.10629055,-0.09040806
1757213818636,6.0118403,-4.735731,9.174581,-0.09407325,-0.10629055,-0.09040806
1757213818637,6.0118403,-4.735731,9.174581,0.029321533,0.042760566,-0.0036651916
1757213818695,6.277597,-5.803545,9.701305,0.029321533,0.042760566,-0.0036651916
1757213818697,6.277597,-5.803545,9.701305,0.10751228,0.056199603,0.013439035
1757213818754,6.564901,-5.9902925,9.555259,0.10751228,0.056199603,0.013439035
1757213818756,6.564901,-5.9902925,9.555259,-0.2321288,0.096516706,0.014660766
1757213818814,7.539341,-6.3949127,9.667787,-0.2321288,0.096516706,0.014660766
1757213818815,7.539341,-6.3949127,9.667787,-0.16982053,0.18325958,-0.042760566
1757213818875,5.4539914,-5.8346696,9.854534,-0.16982053,0.18325958,-0.042760566
1757213818876,5.4539914,-5.8346696,9.854534,-0.02687807,0.14172074,-0.059864793
1757213818934,5.961562,-5.197812,8.080431,-0.02687807,0.14172074,-0.059864793
1757213818936,5.961562,-5.197812,8.080431,0.5155703,0.30665436,-0.10995574
1757213818994,4.6399627,-5.861006,8.252813,0.5155703,0.30665436,-0.10995574
1757213818996,4.6399627,-5.861006,8.252813,0.14538592,0.081855945,-0.14294247
1757213819054,4.5513773,-4.027047,6.895301,0.14538592,0.081855945,-0.14294247
1757213819056,4.5513773,-4.027047,6.895301,0.2761111,0.16982053,-0.103847094
1757213819115,4.76925,-4.795586,7.513005,0.2761111,0.16982053,-0.103847094
1757213819117,4.76925,-4.795586,7.513005,0.13194689,0.25778514,0.064751714
1757213819173,4.697424,-3.976769,7.6111674,0.13194689,0.25778514,0.064751714
1757213819175,4.697424,-3.976769,7.6111674,0.05131268,0.10751228,0.09040806
1757213819234,4.8219223,-4.1395745,7.3166804,0.05131268,0.10751228,0.09040806
1757213819235,4.8219223,-4.1395745,7.3166804,0.05375614,0.18325958,0.018325957
1757213819292,4.3263226,-3.3973722,7.599196,0.05375614,0.18325958,0.018325957
1757213819294,4.3263226,-3.3973722,7.599196,-0.073303826,0.31764993,-0.02687807
1757213819354,3.4356794,-3.490746,6.871359,-0.073303826,0.31764993,-0.02687807
1757213819355,3.4356794,-3.490746,6.871359,-0.09896017,0.21991149,0.017104227
1757213819414,2.669535,-2.5881321,5.995081,-0.09896017,0.21991149,0.017104227
1757213819416,2.669535,-2.5881321,5.995081,-0.1966986,-0.08307768,-0.034208454
1757213819475,2.753332,-2.1619642,6.179435,-0.1966986,-0.08307768,-0.034208454
1757213819476,2.753332,-2.1619642,6.179435,-0.09407325,0.062308256,0.040317107
1757213819532,2.5139117,-2.597709,5.058948,-0.09407325,0.062308256,0.040317107
1757213819534,2.5139117,-2.597709,5.058948,0.015882496,0.2003638,0.10873401
1757213819594,2.896984,-1.7956513,4.5178585,0.015882496,0.2003638,0.10873401
1757213819596,2.896984,-1.7956513,4.5178585,0.43860126,0.2724459,0.09407325
1757213819653,3.4931402,-2.585738,5.93762,0.43860126,0.2724459,0.09407325
1757213819654,3.4931402,-2.585738,5.93762,0.37384954,0.34330627,0.17959438
1757213819712,2.681506,-2.791639,8.212111,0.37384954,0.34330627,0.17959438
1757213819714,2.681506,-2.791639,8.212111,0.09407325,-0.16737708,0.13683382
1757213819772,3.655946,-3.5745432,8.655039,0.09407325,-0.16737708,0.13683382
1757213819774,3.655946,-3.5745432,8.655039,-0.23457226,-0.28955013,0.15515977
1757213819832,4.7022123,-4.307169,8.118738,-0.23457226,-0.28955013,0.15515977
1757213819834,4.7022123,-4.307169,8.118738,-0.08674286,-0.09773844,0.0720821
1757213819892,3.6583402,-3.193865,7.9750857,-0.08674286,-0.09773844,0.0720821
1757213819893,3.6583402,-3.193865,7.9750857,-0.13805555,-0.03176499,-0.06719518
1757213819954,3.2609026,-3.3997664,7.771579,-0.13805555,-0.03176499,-0.06719518
1757213819955,3.2609026,-3.3997664,7.771579,-0.23945917,-0.11362094,-0.043982297
1757213820011,3.2872388,-3.2632968,7.577648,-0.23945917,-0.11362094,-0.043982297
1757213820013,3.2872388,-3.2632968,7.577648,-0.17104226,-0.26145032,-0.04520403
1757213820072,3.4404678,-3.4213142,6.6247563,-0.17104226,-0.26145032,-0.04520403
1757213820074,3.4404678,-3.4213142,6.6247563,-0.27977628,-0.23823744,-0.043982297
1757213820131,3.4213142,-3.8881836,6.5577183,-0.27977628,-0.23823744,-0.043982297
1757213820133,3.4213142,-3.8881836,6.5577183,-0.2932153,-0.24678956,-0.017104227
1757213820192,3.6990416,-3.4572272,5.8586116,-0.2932153,-0.24678956,-0.017104227
1757213820194,3.6990416,-3.4572272,5.8586116,0.05131268,-0.23457226,-0.05131268
1757213820251,3.5290532,-3.347094,5.6431336,0.05131268,-0.23457226,-0.05131268
1757213820252,3.5290532,-3.347094,5.6431336,-0.43127087,-0.39095375,0.07696902
1757213820310,3.6727054,-4.3622355,6.1985884,-0.43127087,-0.39095375,0.07696902
1757213820312,3.6727054,-4.3622355,6.1985884,-0.21746802,-0.21135938,0.06841691
1757213820372,4.8243165,-3.8163576,6.5146227,-0.21746802,-0.21135938,0.06841691
1757213820374,4.8243165,-3.8163576,6.5146227,-0.11362094,-0.39095375,0.047647487
1757213820432,4.405331,-4.3718123,6.4404025,-0.11362094,-0.39095375,0.047647487
1757213820434,4.405331,-4.3718123,6.4404025,-0.13072516,-0.14782938,0.03176499
1757213820492,4.5322237,-4.4843397,7.1275387,-0.13072516,-0.14782938,0.03176499
1757213820494,4.5322237,-4.4843397,7.1275387,-0.17348573,-0.12095132,0.07819075
1757213820551,4.781221,-4.426879,6.919243,-0.17348573,-0.12095132,0.07819075
1757213820554,4.781221,-4.426879,6.919243,-0.13683382,-0.032986723,0.040317107
1757213820610,4.534618,-4.3023806,6.564901,-0.13683382,-0.032986723,0.040317107
1757213820613,4.534618,-4.3023806,6.564901,-0.02321288,-0.04520403,-0.0061086523
1757213820673,4.5537715,-4.5298295,6.6367273,-0.02321288,-0.04520403,-0.0061086523
1757213820674,4.5537715,-4.5298295,6.6367273,-0.11362094,0.07819075,0.09896017
1757213820731,4.6471453,-5.3821654,6.5002575,-0.11362094,0.07819075,0.09896017
1757213820733,4.6471453,-5.3821654,6.5002575,-0.16737708,-0.059864793,0.037873644
1757213820792,5.1355624,-5.463568,7.548918,-0.16737708,-0.059864793,0.037873644
1757213820793,5.1355624,-5.463568,7.548918,-0.27122417,-0.018325957,0.012217305
1757213820851,6.3781533,-6.14831,8.90643,-0.27122417,-0.018325957,0.012217305
1757213820852,6.3781533,-6.14831,8.90643,0.19547687,0.19425514,-0.02076942
1757213820912,5.9783216,-4.498705,8.231265,0.19547687,0.19425514,-0.02076942
1757213820913,5.9783216,-4.498705,8.231265,-0.15027285,0.12339478,-0.2003638
1757213820970,5.1140146,-6.1100025,8.817844,-0.15027285,0.12339478,-0.2003638
1757213820971,5.1140146,-6.1100025,8.817844,0.12095132,0.040317107,-0.06719518
1757213821031,6.030994,-6.5241995,9.25359,0.12095132,0.040317107,-0.06719518
1757213821033,6.030994,-6.5241995,9.25359,-0.12461651,0.18203785,-0.036651913
1757213821091,6.3781533,-6.2488666,10.15381,-0.12461651,0.18203785,-0.036651913
1757213821093,6.3781533,-6.2488666,10.15381,0.14049901,0.058643065,-0.10751228
1757213821150,5.839458,-6.0405707,9.500193,0.14049901,0.058643065,-0.10751228
1757213821152,5.839458,-6.0405707,9.500193,-0.04642576,0.039095376,0.06352998
1757213821211,7.017405,-6.385336,9.368511,-0.04642576,0.039095376,0.06352998
1757213821212,7.017405,-6.385336,9.368511,-0.02443461,-0.04153884,-0.018325957
1757213821270,6.9168487,-7.0724716,10.460267,-0.02443461,-0.04153884,-0.018325957
1757213821272,6.9168487,-7.0724716,10.460267,-0.11728613,0.10140363,0.05497787
1757213821330,6.619968,-6.5265937,8.968679,-0.11728613,0.10140363,0.05497787
1757213821332,6.619968,-6.5265937,8.968679,0.04520403,-0.047647487,-0.040317107
1757213821390,6.0884547,-4.51307,8.645462,0.04520403,-0.047647487,-0.040317107
1757213821392,6.0884547,-4.51307,8.645462,0.014660766,0.13927728,-0.19425514
1757213821450,5.5880666,-5.470751,7.5106106,0.014660766,0.13927728,-0.19425514
1757213821451,5.5880666,-5.470751,7.5106106,0.3115413,0.2968805,-0.17715092
1757213821512,3.8163576,-5.9687448,8.528147,0.3115413,0.2968805,-0.17715092
1757213821513,3.8163576,-5.9687448,8.528147,0.13927728,0.25534168,-0.037873644
1757213821570,4.378995,-4.201824,7.0006456,0.13927728,0.25534168,-0.037873644
1757213821572,4.378995,-4.201824,7.0006456,0.15027285,0.17104226,0.021991149
1757213821631,5.446809,-4.3861775,7.5680714,0.15027285,0.17104226,0.021991149
1757213821633,5.446809,-4.3861775,7.5680714,0.22479841,0.2406809,-0.13072516
1757213821689,4.546589,-4.462792,8.259995,0.22479841,0.2406809,-0.13072516
1757213821690,4.546589,-4.462792,8.259995,0.1160644,0.25045475,-0.09896017
1757213821750,3.70383,-4.2185836,7.4866686,0.1160644,0.25045475,-0.09896017
1757213821752,3.70383,-4.2185836,7.4866686,0.039095376,0.10262536,-0.040317107
1757213821810,4.197036,-3.7948096,7.469909,0.039095376,0.10262536,-0.040317107
1757213821811,4.197036,-3.7948096,7.469909,0.28344148,0.06841691,-0.040317107
1757213821871,3.1196449,-3.0502129,6.0405707,0.28344148,0.06841691,-0.040317107
1757213821872,3.1196449,-3.0502129,6.0405707,0.14538592,0.06352998,-0.09162979
1757213821930,2.4061728,-1.7836803,5.485116,0.14538592,0.06352998,-0.09162979
1757213821931,2.4061728,-1.7836803,5.485116,0.0720821,0.15149458,-0.009773844
1757213821990,2.231396,-2.4516625,5.403713,0.0720821,0.15149458,-0.009773844
1757213821992,2.231396,-2.4516625,5.403713,0.20647246,0.18081611,0.080634214
1757213822050,2.9735985,-1.9728222,4.6686935,0.20647246,0.18081611,0.080634214
1757213822051,2.9735985,-1.9728222,4.6686935,0.089186326,0.16982053,-0.0012217305
1757213822110,2.3822308,-2.56419,5.9280434,0.089186326,0.16982053,-0.0012217305
1757213822112,2.3822308,-2.56419,5.9280434,0.017104227,0.21746802,-0.019547688
1757213822170,3.074155,-2.0805612,7.1849995,0.017104227,0.21746802,-0.019547688
1757213822171,3.074155,-2.0805612,7.1849995,-0.10262536,0.17837265,0.043982297
1757213822230,4.0294414,-3.4524388,8.719683,-0.10262536,0.17837265,0.043982297
1757213822231,4.0294414,-3.4524388,8.719683,-0.19425514,-0.11484267,0.043982297
1757213822289,4.0557775,-3.8402996,8.774749,-0.19425514,-0.11484267,0.043982297
1757213822290,4.0557775,-3.8402996,8.774749,-0.040317107,-0.06352998,-0.034208454
1757213822350,3.9217024,-2.7868507,8.3150625,-0.040317107,-0.06352998,-0.034208454
1757213822351,3.9217024,-2.7868507,8.3150625,-0.029321533,-0.04886922,-0.0036651916
1757213822408,3.5817258,-2.801216,7.587225,-0.029321533,-0.04886922,-0.0036651916
1757213822411,3.5817258,-2.801216,7.587225,-0.13927728,-0.08552113,0.030543262
1757213822470,3.2154129,-2.6240451,7.335834,-0.13927728,-0.08552113,0.030543262
1757213822471,3.2154129,-2.6240451,7.335834,-0.19914207,-0.21991149,0.04642576
1757213822530,3.5745432,-2.6527755,7.038953,-0.19914207,-0.21991149,0.04642576
1757213822532,3.5745432,-2.6527755,7.038953,-0.3921755,-0.23090707,0.035430185
1757213822589,3.157952,-3.2130187,6.277597,-0.3921755,-0.23090707,0.035430185
1757213822591,3.157952,-3.2130187,6.277597,-0.37507126,-0.28099802,0.008552114
1757213822648,3.8426938,-3.7301662,5.5856724,-0.37507126,-0.28099802,0.008552114
1757213822649,3.8426938,-3.7301662,5.5856724,-0.1600467,-0.18081611,-0.032986723
1757213822708,3.751714,-4.1826706,5.8346696,-0.1600467,-0.18081611,-0.032986723
1757213822710,3.751714,-4.1826706,5.8346696,-0.45937067,-0.2125811,0.015882496
1757213822770,4.220978,-3.8355112,6.5936313,-0.45937067,-0.2125811,0.015882496
1757213822771,4.220978,-3.8355112,6.5936313,-0.31642818,-0.1563815,0.10140363
1757213822829,4.4220905,-4.0773253,6.528988,-0.31642818,-0.1563815,0.10140363
1757213822831,4.4220905,-4.0773253,6.528988,-0.2687807,-0.12095132,0.07941248
1757213822889,4.2066126,-4.2664676,7.1371155,-0.2687807,-0.12095132,0.07941248
1757213822890,4.2066126,-4.2664676,7.1371155,-0.2724459,-0.15515977,0.057421334
1757213822948,4.297592,-4.534618,7.192182,-0.2724459,-0.15515977,0.057421334
1757213822949,4.297592,-4.534618,7.192182,-0.16249016,-0.09040806,0.059864793
1757213823008,4.486734,-4.5034933,7.0102224,-0.16249016,-0.09040806,0.059864793
1757213823009,4.486734,-4.5034933,7.0102224,-0.05375614,-0.080634214,0.06719518
1757213823068,4.232949,-4.7907977,7.1514807,-0.05375614,-0.080634214,0.06719518
1757213823070,4.232949,-4.7907977,7.1514807,-0.119729586,-0.056199603,0.02443461
1757213823129,4.5633483,-5.032612,7.067683,-0.119729586,-0.056199603,0.02443461
1757213823131,4.5633483,-5.032612,7.067683,-0.012217305,-0.03176499,0.057421334
1757213823190,5.068525,-4.853047,7.0844426,-0.012217305,-0.03176499,0.057421334
1757213823192,5.068525,-4.853047,7.0844426,-0.06963864,-0.058643065,0.062308256
1757213823249,4.4723687,-5.48751,8.130709,-0.06963864,-0.058643065,0.062308256
1757213823251,4.4723687,-5.48751,8.130709,-0.15271631,-0.021991149,0.032986723
1757213823310,5.683835,-4.8722005,7.644686,-0.15271631,-0.021991149,0.032986723
1757213823311,5.683835,-4.8722005,7.644686,-0.0036651916,-0.019547688,0.039095376
1757213823368,4.6136265,-6.2847795,8.185776,-0.0036651916,-0.019547688,0.039095376
1757213823370,4.6136265,-6.2847795,8.185776,-0.10140363,0.047647487,0.012217305
1757213823429,5.4444146,-5.90889,8.085219,-0.10140363,0.047647487,0.012217305
1757213823431,5.4444146,-5.90889,8.085219,0.02076942,-0.017104227,-0.06719518
1757213823489,6.43322,-6.1004257,8.403648,0.02076942,-0.017104227,-0.06719518
1757213823490,6.43322,-6.1004257,8.403648,-0.12339478,-0.13072516,-0.07696902
1757213823550,6.4547677,-7.457938,10.596737,-0.12339478,-0.13072516,-0.07696902
1757213823552,6.4547677,-7.457938,10.596737,-0.09040806,-0.07452556,0.002443461
1757213823607,7.3645644,-7.129933,10.350134,-0.09040806,-0.07452556,0.002443461
1757213823608,7.3645644,-7.129933,10.350134,0.039095376,0.004886922,-0.05131268
1757213823668,6.6606693,-6.136339,10.09156,0.039095376,0.004886922,-0.05131268
1757213823669,6.6606693,-6.136339,10.09156,-0.15515977,-0.0012217305,-0.080634214
1757213823728,6.3087215,-7.120356,8.652645,-0.15515977,-0.0012217305,-0.080634214
1757213823729,6.3087215,-7.120356,8.652645,0.47769663,0.103847094,-0.057421334
1757213823787,5.4085016,-5.494693,7.723695,0.47769663,0.103847094,-0.057421334
1757213823788,5.4085016,-5.494693,7.723695,-0.13927728,0.095294975,-0.14538592
1757213823851,5.267244,-5.0637364,8.003817,-0.13927728,0.095294975,-0.14538592
1757213823853,5.267244,-5.0637364,8.003817,-0.07574729,0.037873644,-0.04642576
1757213823911,5.556942,-5.683835,7.800309,-0.07574729,0.037873644,-0.04642576
1757213823913,5.556942,-5.683835,7.800309,0.0061086523,0.06841691,-0.11484267
1757213823969,4.8219223,-6.4787097,7.503428,0.0061086523,0.06841691,-0.11484267
1757213823970,4.8219223,-6.4787097,7.503428,0.25778514,0.20647246,-0.07086037
1757213824030,5.0613422,-4.5418005,7.560889,0.25778514,0.20647246,-0.07086037
1757213824031,5.0613422,-4.5418005,7.560889,-0.034208454,0.15515977,-0.09896017
1757213824088,4.771644,-4.7788267,7.680599,-0.034208454,0.15515977,-0.09896017
1757213824090,4.771644,-4.7788267,7.680599,0.39950588,0.2724459,-0.056199603
1757213824148,4.8841715,-3.8474822,6.897695,0.39950588,0.2724459,-0.056199603
1757213824149,4.8841715,-3.8474822,6.897695,0.19303341,0.16982053,-0.15882497
1757213824208,4.1515455,-4.584896,7.1466923,0.19303341,0.16982053,-0.15882497
1757213824209,4.1515455,-4.584896,7.1466923,-0.037873644,0.062308256,0.013439035
1757213824269,4.6902413,-4.4580035,8.176199,-0.037873644,0.062308256,0.013439035
1757213824271,4.6902413,-4.4580035,8.176199,0.057421334,0.44226643,0.015882496
1757213824328,3.5529952,-2.8898015,7.2352777,0.057421334,0.44226643,0.015882496
1757213824329,3.5529952,-2.8898015,7.2352777,0.19914207,0.24312437,-0.042760566
1757213824388,3.3925838,-2.5594015,6.373365,0.19914207,0.24312437,-0.042760566
1757213824390,3.3925838,-2.5594015,6.373365,0.19792034,0.13439035,-0.032986723
1757213824447,3.490746,-2.930503,6.555324,0.19792034,0.13439035,-0.032986723
1757213824448,3.490746,-2.930503,6.555324,0.05375614,-0.02321288,0.064751714
1757213824507,3.3087866,-2.4301147,5.7843914,0.05375614,-0.02321288,0.064751714
1757213824509,3.3087866,-2.4301147,5.7843914,0.058643065,-0.004886922,0.040317107
1757213824569,2.6312277,-2.5594015,5.9280434,0.058643065,-0.004886922,0.040317107
1757213824570,2.6312277,-2.5594015,5.9280434,0.17104226,0.1685988,0.0720821
1757213824628,2.5187001,-1.7860745,5.329493,0.17104226,0.1685988,0.0720821
1757213824630,2.5187001,-1.7860745,5.329493,0.25778514,0.19914207,0.089186326
1757213824687,3.394978,-2.384625,7.5106106,0.25778514,0.19914207,0.089186326
1757213824688,3.394978,-2.384625,7.5106106,-0.04153884,0.15027285,0.1160644
1757213824747,3.8187518,-3.643975,8.152257,-0.04153884,0.15027285,0.1160644
1757213824748,3.8187518,-3.643975,8.152257,-0.1966986,-0.02321288,0.035430185
1757213824807,4.010288,-3.7086184,8.66701,-0.1966986,-0.02321288,0.035430185
1757213824808,4.010288,-3.7086184,8.66701,-0.02076942,0.029321533,-0.039095376
1757213824868,3.8043866,-3.6846764,7.872135,-0.02076942,0.029321533,-0.039095376
1757213824869,3.8043866,-3.6846764,7.872135,-0.02565634,-0.052534413,-0.02076942
1757213824927,3.98874,-3.7134068,8.039729,-0.02565634,-0.052534413,-0.02076942
1757213824928,3.98874,-3.7134068,8.039729,-0.1881465,-0.02687807,0.034208454
1757213824988,3.845088,-3.371036,7.8793178,-0.1881465,-0.02687807,0.034208454
1757213824989,3.845088,-3.371036,7.8793178,-0.119729586,-0.02443461,-0.04520403
1757213825047,3.3806129,-3.2010477,7.723695,-0.119729586,-0.02443461,-0.04520403
1757213825049,3.3806129,-3.2010477,7.723695,-0.2443461,-0.07574729,-0.028099801
1757213825109,3.1507695,-3.265691,7.5800424,-0.2443461,-0.07574729,-0.028099801
1757213825110,3.1507695,-3.265691,7.5800424,-0.25289822,-0.17592919,0.002443461
1757213825167,3.2824504,-2.9400797,6.943185,-0.25289822,-0.17592919,0.002443461
1757213825168,3.2824504,-2.9400797,6.943185,-0.1881465,-0.25534168,-0.019547688
1757213825228,3.8307228,-3.1747115,5.9519854,-0.1881465,-0.25534168,-0.019547688
1757213825229,3.8307228,-3.1747115,5.9519854,-0.12461651,-0.18448131,-0.05375614
1757213825287,4.10845,-2.813187,6.133945,-0.12461651,-0.18448131,-0.05375614
1757213825288,4.10845,-2.813187,6.133945,-0.32253686,-0.12339478,0.032986723
1757213825348,3.976769,-4.879383,6.5625067,-0.32253686,-0.12339478,0.032986723
1757213825349,3.976769,-4.879383,6.5625067,-0.52290064,-0.33475417,0.07819075
1757213825406,4.4125137,-4.405331,6.907272,-0.52290064,-0.33475417,0.07819075
1757213825408,4.4125137,-4.405331,6.907272,-0.28221974,-0.22724187,0.07941248
1757213825466,4.793192,-4.9057193,6.981492,-0.28221974,-0.22724187,0.07941248
1757213825468,4.793192,-4.9057193,6.981492,-0.13072516,-0.16126843,0.039095376
1757213825526,4.5513773,-4.0054994,6.7827735,-0.13072516,-0.16126843,0.039095376
1757213825527,4.5513773,-4.0054994,6.7827735,-0.0061086523,-0.05497787,-0.02076942
1757213825587,4.7979803,-4.5681367,6.8641763,-0.0061086523,-0.05497787,-0.02076942
1757213825589,4.7979803,-4.5681367,6.8641763,-0.02565634,0.04520403,0.02076942
1757213825647,4.594473,-3.8857894,6.7803793,-0.02565634,0.04520403,0.02076942
1757213825649,4.594473,-3.8857894,6.7803793,0.14294247,0.013439035,0.0
1757213825707,4.3742065,-4.2999864,6.979098,0.14294247,0.013439035,0.0
1757213825708,4.3742065,-4.2999864,6.979098,-0.008552114,0.0061086523,0.05497787
1757213825767,4.4556093,-4.0078936,7.6351094,-0.008552114,0.0061086523,0.05497787
1757213825768,4.4556093,-4.0078936,7.6351094,0.030543262,0.061086524,0.062308256
1757213825826,4.9200845,-4.644751,7.1371155,0.030543262,0.061086524,0.062308256
1757213825828,4.9200845,-4.644751,7.1371155,0.021991149,0.07819075,-0.017104227
1757213825886,4.189853,-3.5913026,7.7931266,0.021991149,0.07819075,-0.017104227
1757213825888,4.189853,-3.5913026,7.7931266,0.042760566,0.07086037,-0.07696902
1757213825946,5.1571107,-4.6926355,7.606379,0.042760566,0.07086037,-0.07696902
1757213825948,5.1571107,-4.6926355,7.606379,0.012217305,0.030543262,-0.0012217305
1757213826005,4.5202527,-4.771644,7.881712,0.012217305,0.030543262,-0.0012217305
1757213826007,4.5202527,-4.771644,7.881712,-0.064751714,0.014660766,-0.02443461
1757213826066,4.996699,-5.695806,9.203311,-0.064751714,0.014660766,-0.02443461
1757213826068,4.996699,-5.695806,9.203311,-0.16615535,-0.028099801,0.043982297
1757213826126,5.4324436,-5.6982,9.603143,-0.16615535,-0.028099801,0.043982297
1757213826129,5.4324436,-5.6982,9.603143,-0.27122417,-0.02321288,-0.032986723
1757213826186,5.693412,-6.397307,10.512939,-0.27122417,-0.02321288,-0.032986723
1757213826188,5.693412,-6.397307,10.512939,0.32375857,-0.004886922,0.014660766
1757213826244,5.731719,-4.620809,8.499416,0.32375857,-0.004886922,0.014660766
1757213826245,5.731719,-4.620809,8.499416,0.24556783,0.002443461,-0.0036651916
1757213826306,5.8346696,-5.33907,9.933543,0.24556783,0.002443461,-0.0036651916
1757213826308,5.8346696,-5.33907,9.933543,-0.10629055,-0.20891592,0.20647246
1757213826365,6.6486983,-4.6926355,9.938332,-0.10629055,-0.20891592,0.20647246
1757213826366,6.6486983,-4.6926355,9.938332,0.07086037,0.0036651916,0.10629055
1757213826426,6.2823853,-6.5337763,9.885659,0.07086037,0.0036651916,0.10629055
1757213826428,6.2823853,-6.5337763,9.885659,-0.21502456,-0.014660766,0.13316862
1757213826486,5.5641246,-5.1259856,8.499416,-0.21502456,-0.014660766,0.13316862
1757213826488,5.5641246,-5.1259856,8.499416,-0.05131268,0.002443461,-0.02321288
1757213826546,5.4444146,-5.626374,8.305486,-0.05131268,0.002443461,-0.02321288
1757213826548,5.4444146,-5.626374,8.305486,0.0012217305,0.15027285,0.07574729
1757213826605,5.5162406,-4.3047748,7.3525934,0.0012217305,0.15027285,0.07574729
1757213826607,5.5162406,-4.3047748,7.3525934,0.039095376,0.015882496,-0.043982297
1757213826666,4.4580035,-5.580884,7.800309,0.039095376,0.015882496,-0.043982297
1757213826668,4.4580035,-5.580884,7.800309,-0.037873644,0.11728613,0.112399206
1757213826724,5.0661306,-5.1020436,8.35337,-0.037873644,0.11728613,0.112399206
1757213826726,5.0661306,-5.1020436,8.35337,0.04642576,0.17837265,0.062308256
1757213826785,4.984728,-4.8506527,8.025364,0.04642576,0.17837265,0.062308256
1757213826787,4.984728,-4.8506527,8.025364,0.18203785,0.10262536,-0.09162979
1757213826845,4.711789,-4.1539397,7.680599,0.18203785,0.10262536,-0.09162979
1757213826846,4.711789,-4.1539397,7.680599,0.09285152,0.20525073,-0.05497787
1757213826904,3.952827,-4.939238,8.121132,0.09285152,0.20525073,-0.05497787
1757213826905,3.952827,-4.939238,8.121132,0.13439035,0.24801129,-0.010995574
1757213826964,4.5298295,-4.4244847,7.57286,0.13439035,0.24801129,-0.010995574
1757213826965,4.5298295,-4.4244847,7.57286,0.23090707,0.13072516,-0.103847094
1757213827023,3.6056678,-3.4835634,7.2544312,0.23090707,0.13072516,-0.103847094
1757213827025,3.6056678,-3.4835634,7.2544312,0.15027285,0.11484267,-0.09162979
1757213827082,3.3686419,-2.9831753,6.6391215,0.15027285,0.11484267,-0.09162979
1757213827084,3.3686419,-2.9831753,6.6391215,0.16249016,0.08307768,-0.04642576
1757213827145,2.908955,-2.255338,5.877765,0.16249016,0.08307768,-0.04642576
1757213827146,2.908955,-2.255338,5.877765,0.118507855,0.05497787,-0.06352998
1757213827203,2.8203697,-2.6312277,5.544971,0.118507855,0.05497787,-0.06352998
1757213827205,2.8203697,-2.6312277,5.544971,0.047647487,0.18692477,-0.040317107
1757213827262,2.6264393,-2.3511062,5.494693,0.047647487,0.18692477,-0.040317107
1757213827263,2.6264393,-2.3511062,5.494693,0.17592919,0.24312437,-0.004886922
1757213827321,2.6551697,-2.6623523,5.9639564,0.17592919,0.24312437,-0.004886922
1757213827323,2.6551697,-2.6623523,5.9639564,0.27977628,0.2406809,0.02076942
1757213827385,3.1268275,-1.7980455,6.787562,0.27977628,0.2406809,0.02076942
1757213827387,3.1268275,-1.7980455,6.787562,0.05375614,-0.007330383,-0.02443461
1757213827444,3.8546648,-3.0238767,8.623915,0.05375614,-0.007330383,-0.02443461
1757213827445,3.8546648,-3.0238767,8.623915,-0.35430184,-0.096516706,0.056199603
1757213827503,3.6942532,-4.1539397,9.229648,-0.35430184,-0.096516706,0.056199603
1757213827505,3.6942532,-4.1539397,9.229648,-0.23457226,-0.042760566,-0.047647487
1757213827564,3.940856,-3.655946,8.707711,-0.23457226,-0.042760566,-0.047647487
1757213827565,3.940856,-3.655946,8.707711,-0.030543262,-0.03176499,-0.018325957
1757213827625,3.821146,-2.621651,8.0684595,-0.030543262,-0.03176499,-0.018325957
1757213827627,3.821146,-2.621651,8.0684595,0.0012217305,-0.004886922,-0.095294975
1757213827684,3.5362358,-3.1890767,7.9463553,0.0012217305,-0.004886922,-0.095294975
1757213827685,3.5362358,-3.1890767,7.9463553,-0.15393804,-0.042760566,0.0012217305
1757213827745,3.833117,-2.8083985,7.7308774,-0.15393804,-0.042760566,0.0012217305
1757213827746,3.833117,-2.8083985,7.7308774,-0.23457226,-0.13316862,-0.04153884
1757213827803,3.205836,-2.755726,8.085219,-0.23457226,-0.13316862,-0.04153884
1757213827804,3.205836,-2.755726,8.085219,-0.32375857,-0.17592919,-0.02687807
1757213827863,3.394978,-2.7581203,7.2352777,-0.32375857,-0.17592919,-0.02687807
1757213827865,3.394978,-2.7581203,7.2352777,-0.2724459,-0.1563815,-0.0720821
1757213827922,3.3135753,-3.335123,6.531382,-0.2724459,-0.1563815,-0.0720821
1757213827924,3.3135753,-3.335123,6.531382,-0.25900686,-0.204029,-0.047647487
1757213827984,4.1180267,-3.3303347,5.5162406,-0.25900686,-0.204029,-0.047647487
1757213827986,4.1180267,-3.3303347,5.5162406,0.012217305,-0.13683382,-0.02565634
1757213828043,3.9624038,-4.3718123,5.877765,0.012217305,-0.13683382,-0.02565634
1757213828045,3.9624038,-4.3718123,5.877765,-0.26267207,-0.042760566,-0.008552114
1757213828103,4.3143516,-4.1683054,6.0142345,-0.26267207,-0.042760566,-0.008552114
1757213828105,4.3143516,-4.1683054,6.0142345,-0.18692477,-0.057421334,0.013439035
1757213828161,3.7732618,-4.2425256,6.71813,-0.18692477,-0.057421334,0.013439035
1757213828163,3.7732618,-4.2425256,6.71813,-0.22113322,-0.052534413,0.10262536
1757213828222,3.7445314,-4.3478703,7.1514807,-0.22113322,-0.052534413,0.10262536
1757213828223,3.7445314,-4.3478703,7.1514807,-0.18203785,-0.12339478,0.118507855
1757213828282,4.1180267,-4.2760444,7.1634517,-0.18203785,-0.12339478,0.118507855
1757213828284,4.1180267,-4.2760444,7.1634517,0.039095376,0.002443461,0.06841691
1757213828341,4.2042184,-4.110844,7.0581064,0.039095376,0.002443461,0.06841691
1757213828343,4.2042184,-4.110844,7.0581064,-0.013439035,-0.029321533,0.13927728
1757213828402,4.0701427,-4.8362875,7.979874,-0.013439035,-0.029321533,0.13927728
1757213828403,4.0701427,-4.8362875,7.979874,-0.095294975,-0.009773844,0.061086524
1757213828462,4.51307,-4.3047748,7.0940194,-0.095294975,-0.009773844,0.061086524
1757213828463,4.51307,-4.3047748,7.0940194,-0.004886922,-0.1282817,0.080634214
1757213828522,4.498705,-4.6519337,8.013393,-0.004886922,-0.1282817,0.080634214
1757213828524,4.498705,-4.6519337,8.013393,-0.10262536,0.056199603,-0.07086037
1757213828582,5.542577,-4.3478703,7.7332716,-0.10262536,0.056199603,-0.07086037
1757213828584,5.542577,-4.3478703,7.7332716,0.018325957,-0.09040806,-0.062308256
1757213828640,4.596867,-5.8801594,8.669404,0.018325957,-0.09040806,-0.062308256
1757213828642,4.596867,-5.8801594,8.669404,-0.24190263,-0.062308256,-0.08552113
1757213828704,4.7309427,-4.608838,8.760384,-0.24190263,-0.062308256,-0.08552113
1757213828705,4.7309427,-4.608838,8.760384,0.012217305,0.002443461,0.015882496
1757213828760,4.8865657,-6.1004257,8.449138,0.012217305,0.002443461,0.015882496
1757213828762,4.8865657,-6.1004257,8.449138,0.002443461,0.11728613,0.05497787
1757213828822,4.6926355,-5.4539914,9.346964,0.002443461,0.11728613,0.05497787
1757213828824,4.6926355,-5.4539914,9.346964,0.0720821,0.059864793,-0.008552114
1757213828881,6.0381765,-5.872977,9.059659,0.0720821,0.059864793,-0.008552114
1757213828882,6.0381765,-5.872977,9.059659,-0.08552113,-0.028099801,0.05497787
1757213828942,6.9862804,-5.923255,9.967062,-0.08552113,-0.028099801,0.05497787
1757213828944,6.9862804,-5.923255,9.967062,-0.1685988,-0.12217305,0.02565634
1757213829001,5.793968,-6.435614,10.429143,-0.1685988,-0.12217305,0.02565634
1757213829002,5.793968,-6.435614,10.429143,0.02076942,-0.0036651916,0.07574729
1757213829060,6.6510925,-6.2632318,9.55047,0.02076942,-0.0036651916,0.07574729
1757213829061,6.6510925,-6.2632318,9.55047,0.0061086523,-0.017104227,0.04520403
1757213829120,6.203377,-6.361394,9.938332,0.0061086523,-0.017104227,0.04520403
1757213829122,6.203377,-6.361394,9.938332,-0.23823744,0.18448131,0.10995574
1757213829180,5.2145715,-5.5401826,7.833828,-0.23823744,0.18448131,0.10995574
1757213829182,5.2145715,-5.5401826,7.833828,0.05497787,0.30787608,0.035430185
1757213829241,4.4244847,-6.1219735,8.374918,0.05497787,0.30787608,0.035430185
1757213829242,4.4244847,-6.1219735,8.374918,0.118507855,0.14294247,-0.0012217305
1757213829300,4.903325,-5.4180784,8.4347725,0.118507855,0.14294247,-0.0012217305
1757213829302,4.903325,-5.4180784,8.4347725,0.09407325,0.18448131,-0.07696902
1757213829360,4.3526587,-5.911284,7.575254,0.09407325,0.18448131,-0.07696902
1757213829361,4.3526587,-5.911284,7.575254,0.17348573,0.10140363,-0.14172074
1757213829420,4.5298295,-5.0134583,8.801085,0.17348573,0.10140363,-0.14172074
1757213829422,4.5298295,-5.0134583,8.801085,0.28099802,0.1685988,-0.13072516
1757213829480,4.5394063,-4.51307,7.7428484,0.28099802,0.1685988,-0.13072516
1757213829481,4.5394063,-4.51307,7.7428484,0.16493362,0.19914207,-0.052534413
1757213829540,4.0294414,-4.3766007,8.37013,0.16493362,0.19914207,-0.052534413
1757213829541,4.0294414,-4.3766007,8.37013,0.29932398,0.28344148,-0.07574729
1757213829602,3.7014358,-3.3614593,7.038953,0.29932398,0.28344148,-0.07574729
1757213829604,3.7014358,-3.3614593,7.038953,0.38973203,0.34208453,-0.16615535
1757213829661,2.3056161,-3.0550013,6.0956373,0.38973203,0.34208453,-0.16615535
1757213829663,2.3056161,-3.0550013,6.0956373,0.28099802,0.1441642,-0.18081611
1757213829719,2.1619642,-2.0015526,6.0597243,0.28099802,0.1441642,-0.18081611
1757213829721,2.1619642,-2.0015526,6.0597243,0.37873647,0.118507855,-0.04153884
1757213829779,2.4516625,-2.1739352,5.8083334,0.37873647,0.118507855,-0.04153884
1757213829781,2.4516625,-2.1739352,5.8083334,0.21502456,0.12705997,0.02687807
1757213829839,2.4301147,-1.8148049,5.4420204,0.21502456,0.12705997,0.02687807
1757213829841,2.4301147,-1.8148049,5.4420204,0.30787608,0.073303826,0.057421334
1757213829900,2.303222,-1.5801731,5.5880666,0.30787608,0.073303826,0.057421334
1757213829901,2.303222,-1.5801731,5.5880666,0.29443705,0.18936823,0.058643065
1757213829958,1.9656396,-1.0965444,7.252037,0.29443705,0.18936823,0.058643065
1757213829959,1.9656396,-1.0965444,7.252037,0.07574729,0.0,0.059864793
1757213830020,3.7086184,-2.4995465,8.463503,0.07574729,0.0,0.059864793
1757213830021,3.7086184,-2.4995465,8.463503,-0.33353242,-0.103847094,0.15271631
1757213830077,4.3263226,-2.7748797,9.65821,-0.33353242,-0.103847094,0.15271631
1757213830079,4.3263226,-2.7748797,9.65821,-0.3213151,-0.07086037,0.02687807
1757213830139,3.9624038,-2.7820623,9.050082,-0.3213151,-0.07086037,0.02687807
1757213830141,3.9624038,-2.7820623,9.050082,-0.10140363,-0.015882496,-0.12950343
1757213830198,3.0382419,-2.6503813,7.955932,-0.10140363,-0.015882496,-0.12950343
1757213830199,3.0382419,-2.6503813,7.955932,-0.16737708,0.015882496,-0.12705997
1757213830259,3.2609026,-2.9903579,7.819463,-0.16737708,0.015882496,-0.12705997
1757213830260,3.2609026,-2.9903579,7.819463,-0.18570304,-0.089186326,-0.032986723
1757213830318,3.4500446,-2.7581203,7.771579,-0.18570304,-0.089186326,-0.032986723
1757213830320,3.4500446,-2.7581203,7.771579,-0.26267207,-0.17837265,-0.02565634
1757213830378,3.739743,-2.6288335,7.7787614,-0.26267207,-0.17837265,-0.02565634
1757213830380,3.739743,-2.6288335,7.7787614,-0.37995818,-0.21868975,0.0036651916
1757213830438,3.7205894,-3.4811692,7.120356,-0.37995818,-0.21868975,0.0036651916
1757213830440,3.7205894,-3.4811692,7.120356,-0.39095375,-0.19303341,-0.042760566
1757213830498,3.4524388,-3.5553896,6.835446,-0.39095375,-0.19303341,-0.042760566
1757213830501,3.4524388,-3.5553896,6.835446,-0.14905111,-0.064751714,-0.13072516
1757213830559,3.9025488,-3.5529952,5.9041014,-0.14905111,-0.064751714,-0.13072516
1757213830560,3.9025488,-3.5529952,5.9041014,-0.007330383,-0.015882496,-0.14294247
1757213830619,3.071761,-3.6104562,6.033388,-0.007330383,-0.015882496,-0.14294247
1757213830621,3.071761,-3.6104562,6.033388,-0.22968534,-0.2932153,0.10140363
1757213830678,3.7804444,-3.8283286,7.141904,-0.22968534,-0.2932153,0.10140363
1757213830680,3.7804444,-3.8283286,7.141904,-0.38240165,-0.27000242,0.2321288
1757213830740,4.3047748,-3.3877954,8.051701,-0.38240165,-0.27000242,0.2321288
1757213830742,4.3047748,-3.3877954,8.051701,-0.20525073,-0.17715092,0.1881465
1757213830798,4.0294414,-3.4644098,7.48188,-0.20525073,-0.17715092,0.1881465
1757213830800,4.0294414,-3.4644098,7.48188,-0.0061086523,-0.02076942,0.065973446
1757213830860,4.048595,-3.2920272,7.156269,-0.0061086523,-0.02076942,0.065973446
1757213830861,4.048595,-3.2920272,7.156269,-0.042760566,-0.058643065,0.064751714
1757213830918,4.2880154,-3.3925838,7.089231,-0.042760566,-0.058643065,0.064751714
1757213830920,4.2880154,-3.3925838,7.089231,-0.1563815,-0.0720821,0.09162979
1757213830979,4.0892963,-4.5801077,8.343793,-0.1563815,-0.0720821,0.09162979
1757213830980,4.0892963,-4.5801077,8.343793,-0.2602286,-0.09162979,0.02443461
1757213831039,4.8458643,-4.5298295,7.860164,-0.2602286,-0.09162979,0.02443461
1757213831040,4.8458643,-4.5298295,7.860164,-0.17959438,0.061086524,0.02443461
1757213831098,3.845088,-4.6495395,8.374918,-0.17959438,0.061086524,0.02443461
1757213831100,3.845088,-4.6495395,8.374918,-0.1282817,-0.009773844,-0.018325957
1757213831158,5.183447,-4.414908,7.93199,-0.1282817,-0.009773844,-0.018325957
1757213831160,5.183447,-4.414908,7.93199,0.06719518,0.013439035,-0.13439035
1757213831218,4.6112323,-4.951209,8.061277,0.06719518,0.013439035,-0.13439035
1757213831220,4.6112323,-4.951209,8.061277,-0.0036651916,-0.036651913,-0.05375614
1757213831277,4.5992613,-5.255273,8.944737,-0.0036651916,-0.036651913,-0.05375614
1757213831279,4.5992613,-5.255273,8.944737,-0.07819075,-0.058643065,0.007330383
1757213831338,5.0876784,-4.783615,8.92319,-0.07819075,-0.058643065,0.007330383
1757213831340,5.0876784,-4.783615,8.92319,-0.02443461,-0.017104227,0.052534413
1757213831397,5.7125654,-5.8322754,9.6845455,-0.02443461,-0.017104227,0.052534413
1757213831399,5.7125654,-5.8322754,9.6845455,-0.04153884,0.037873644,-0.06352998
1757213831459,5.755661,-5.619191,8.995016,-0.04153884,0.037873644,-0.06352998
1757213831460,5.755661,-5.619191,8.995016,0.037873644,-0.02443461,-0.09162979
1757213831517,5.2241483,-5.422867,9.504981,0.037873644,-0.02443461,-0.09162979
1757213831519,5.2241483,-5.422867,9.504981,0.12950343,-0.112399206,-0.103847094
1757213831577,6.6271505,-5.2720323,9.55047,0.12950343,-0.112399206,-0.103847094
1757213831578,6.6271505,-5.2720323,9.55047,-0.14660765,-0.073303826,-0.040317107
1757213831638,6.3805475,-6.009446,10.304645,-0.14660765,-0.073303826,-0.040317107
1757213831640,6.3805475,-6.009446,10.304645,-0.26633725,-0.09040806,0.0
1757213831697,5.221754,-7.893683,12.605472,-0.26633725,-0.09040806,0.0
1757213831698,5.221754,-7.893683,12.605472,1.3133603,0.18325958,0.036651913
1757213831758,6.787562,-3.6056678,7.884106,1.3133603,0.18325958,0.036651913
1757213831760,6.787562,-3.6056678,7.884106,0.88453287,0.18081611,-0.14782938
1757213831818,3.9312792,-5.0397944,8.504205,0.88453287,0.18081611,-0.14782938
1757213831820,3.9312792,-5.0397944,8.504205,-0.20891592,0.27855456,0.12461651
1757213831879,4.548983,-2.932897,8.197746,-0.20891592,0.27855456,0.12461651
1757213831881,4.548983,-2.932897,8.197746,0.3359759,0.39828414,-0.057421334
1757213831938,4.903325,-3.833117,7.1347213,0.3359759,0.39828414,-0.057421334
1757213831940,4.903325,-3.833117,7.1347213,0.34574974,0.27122417,0.032986723
1757213831998,4.6351743,-4.1156325,9.009381,0.34574974,0.27122417,0.032986723
1757213831999,4.6351743,-4.1156325,9.009381,-0.30787608,0.062308256,-0.02443461
1757213832057,4.010288,-3.2513258,7.8649526,-0.30787608,0.062308256,-0.02443461
1757213832059,4.010288,-3.2513258,7.8649526,-0.0061086523,0.118507855,0.09285152
1757213832116,4.3861775,-3.976769,9.179369,-0.0061086523,0.118507855,0.09285152
1757213832118,4.3861775,-3.976769,9.179369,-0.111177474,0.15760323,-0.018325957
1757213832178,4.1706996,-2.7581203,8.719683,-0.111177474,0.15760323,-0.018325957
1757213832180,4.1706996,-2.7581203,8.719683,0.32620203,0.3005457,-0.07574729
1757213832236,4.283227,-2.918532,8.604761,0.32620203,0.3005457,-0.07574729
1757213832237,4.283227,-2.918532,8.604761,0.30298916,0.2406809,-0.09285152
1757213832298,3.2561142,-2.5713725,8.700529,0.30298916,0.2406809,-0.09285152
1757213832299,3.2561142,-2.5713725,8.700529,-0.009773844,0.29565877,-0.1001819
1757213832357,2.7389667,-2.6623523,8.061277,-0.009773844,0.29565877,-0.1001819
1757213832358,2.7389667,-2.6623523,8.061277,0.20525073,0.17715092,-0.0061086523
1757213832417,3.1627405,-2.1452048,7.517793,0.20525073,0.17715092,-0.0061086523
1757213832418,3.1627405,-2.1452048,7.517793,0.118507855,0.04520403,0.09162979
1757213832475,1.8052281,-1.6424223,6.179435,0.118507855,0.04520403,0.09162979
1757213832477,1.8052281,-1.6424223,6.179435,-0.111177474,-0.1441642,0.10995574
1757213832536,1.7046716,-1.2378023,5.5641246,-0.111177474,-0.1441642,0.10995574
1757213832538,1.7046716,-1.2378023,5.5641246,-0.17959438,-0.18448131,0.11484267
1757213832596,1.067814,-0.79726917,4.793192,-0.17959438,-0.18448131,0.11484267
1757213832597,1.067814,-0.79726917,4.793192,-0.17959438,-0.17592919,0.17959438
1757213832657,1.0055647,-0.45489833,7.074866,-0.17959438,-0.17592919,0.17959438
1757213832659,1.0055647,-0.45489833,7.074866,-0.064751714,-0.09162979,0.59742624
1757213832717,1.8363527,2.2936451,10.785878,-0.064751714,-0.09162979,0.59742624
1757213832718,1.8363527,2.2936451,10.785878,-0.3726278,-0.752586,2.0512855
1757213832776,0.47644615,-7.026982,7.9128366,-0.3726278,-0.752586,2.0512855
1757213832778,0.47644615,-7.026982,7.9128366,4.3676863,-0.2125811,2.620612
1757213832837,1.8650831,-1.7477672,10.9103775,4.3676863,-0.2125811,2.620612
1757213832838,1.8650831,-1.7477672,10.9103775,5.903402,1.881465,2.5302038
1757213832897,0.50517654,0.62488663,8.655039,5.903402,1.881465,2.5302038
1757213832899,0.50517654,0.62488663,8.655039,6.0084705,2.6010642,1.2302825
1757213832955,0.29927522,4.211401,11.537658,6.0084705,2.6010642,1.2302825
1757213832956,0.29927522,4.211401,11.537658,0.5546656,1.4172074,0.4166101
1757213833018,2.3439236,3.58412,10.070012,0.5546656,1.4172074,0.4166101
1757213833019,2.3439236,3.58412,10.070012,-0.172264,0.48624873,0.017104227
1757213833075,0.878672,4.357447,9.378088,-0.172264,0.48624873,0.017104227
1757213833077,0.878672,4.357447,9.378088,-0.657291,-0.19058995,-0.06841691
1757213833135,0.50996494,5.4085016,9.583989,-0.657291,-0.19058995,-0.06841691
1757213833136,0.50996494,5.4085016,9.583989,-0.41538838,-0.40683624,0.032986723
1757213833194,0.581791,4.4699745,7.848193,-0.41538838,-0.40683624,0.032986723
1757213833196,0.581791,4.4699745,7.848193,-0.0061086523,-0.34330627,0.021991149
1757213833256,0.059855044,4.307169,8.944737,-0.0061086523,-0.34330627,0.021991149
1757213833258,0.059855044,4.307169,8.944737,-1.328021,-0.18936823,0.24923302
1757213833316,0.90979666,2.5833437,9.569624,-1.328021,-0.18936823,0.24923302
1757213833317,0.90979666,2.5833437,9.569624,-0.22235495,-0.12339478,0.02443461
1757213833376,0.90740246,4.2042184,8.0445175,-0.22235495,-0.12339478,0.02443461
1757213833377,0.90740246,4.2042184,8.0445175,-0.13683382,0.02443461,0.22602014
1757213833434,0.46208093,3.2010477,9.085996,-0.13683382,0.02443461,0.22602014
1757213833434,0.46208093,3.2010477,9.085996,-0.72204274,0.080634214,0.03176499
