timestamp,ax,ay,az,gx,gy,gz
1757149049031,0.62249243,2.243367,9.095572,0.0,0.0,0.0
1757149049032,0.62249243,2.243367,9.095572,0.72082096,0.073303826,0.0036651916
1757149049156,-0.16280572,2.2361844,9.030929,0.72082096,0.073303826,0.0036651916
1757149049157,-0.16280572,2.2361844,9.030929,0.40439278,-0.013439035,-0.3726278
1757149049157,0.107739076,3.2321723,9.155427,0.40439278,-0.013439035,-0.3726278
1757149049157,0.107739076,3.2321723,9.155427,0.23823744,0.009773844,-0.080634214
1757149049202,0.46926352,3.1603463,9.179369,0.23823744,0.009773844,-0.080634214
1757149049203,0.46926352,3.1603463,9.179369,0.22602014,0.09040806,0.08552113
1757149049263,0.5554548,3.0454245,9.351752,0.22602014,0.09040806,0.08552113
1757149049263,0.5554548,3.0454245,9.351752,-0.04886922,0.1160644,0.20158553
1757149049325,0.009576807,3.2321723,9.308656,-0.04886922,0.1160644,0.20158553
1757149049325,0.009576807,3.2321723,9.308656,-0.028099801,0.04153884,0.20647246
1757149049382,-0.16280572,3.5553896,9.119514,-0.028099801,0.04153884,0.20647246
1757149049383,-0.16280572,3.5553896,9.119514,-0.20525073,-0.09773844,0.25778514
1757149049443,0.011971008,3.2225955,8.882488,-0.20525073,-0.09773844,0.25778514
1757149049443,0.011971008,3.2225955,8.882488,0.02687807,-0.16615535,0.26389378
1757149049501,0.15562311,3.4165258,9.078813,0.02687807,-0.16615535,0.26389378
1757149049502,0.15562311,3.4165258,9.078813,-0.2602286,-0.12339478,0.30176744
1757149049561,-0.32561144,3.7660792,9.315839,-0.2602286,-0.12339478,0.30176744
1757149049562,-0.32561144,3.7660792,9.315839,-0.14905111,0.009773844,0.23090707
1757149049621,0.1436521,3.7900212,9.097966,-0.14905111,0.009773844,0.23090707
1757149049622,0.1436521,3.7900212,9.097966,-0.010995574,0.08674286,-0.05375614
1757149049681,0.45010993,3.5793316,8.707711,-0.010995574,0.08674286,-0.05375614
1757149049681,0.45010993,3.5793316,8.707711,-0.080634214,0.057421334,-0.15271631
1757149049744,0.2825158,4.3861775,8.710106,-0.080634214,0.057421334,-0.15271631
1757149049744,0.2825158,4.3861775,8.710106,0.0842994,0.021991149,-0.25411993
1757149049806,0.06464344,3.98874,8.504205,0.0842994,0.021991149,-0.25411993
1757149049807,0.06464344,3.98874,8.504205,-0.06963864,-0.09407325,-0.19914207
1757149049865,-0.093373865,3.9959226,8.559271,-0.06963864,-0.09407325,-0.19914207
1757149049866,-0.093373865,3.9959226,8.559271,-0.04520403,-0.21746802,-0.17959438
1757149049926,0.18195933,2.767697,9.160215,-0.04520403,-0.21746802,-0.17959438
1757149049927,0.18195933,2.767697,9.160215,-0.2565634,-0.1966986,-0.05375614
1757149049987,0.6488287,2.8395233,8.535329,-0.2565634,-0.1966986,-0.05375614
1757149049988,0.6488287,2.8395233,8.535329,-0.4373795,-0.15393804,-0.23457226
1757149050045,0.82360536,2.2888567,9.457097,-0.4373795,-0.15393804,-0.23457226
1757149050046,0.82360536,2.2888567,9.457097,-0.1881465,0.014660766,-0.2565634
1757149050105,0.9600749,2.4756045,9.416395,-0.1881465,0.014660766,-0.2565634
1757149050107,0.9600749,2.4756045,9.416395,-0.18936823,0.02687807,-0.31642818
1757149050167,0.7637503,2.9592333,10.371682,-0.18936823,0.02687807,-0.31642818
1757149050168,0.7637503,2.9592333,10.371682,-0.09040806,0.16126843,-0.408058
1757149050226,0.51714754,2.585738,10.127473,-0.09040806,0.16126843,-0.408058
1757149050228,0.51714754,2.585738,10.127473,0.002443461,0.12095132,-0.45570546
1757149050286,0.18195933,2.6910827,10.0269165,0.002443461,0.12095132,-0.45570546
1757149050289,0.18195933,2.6910827,10.0269165,-0.112399206,-0.012217305,-0.3494149
1757149050347,-0.05267244,2.980781,9.849746,-0.112399206,-0.012217305,-0.3494149
1757149050349,-0.05267244,2.980781,9.849746,-0.037873644,-0.04642576,-0.29565877
1757149050407,-0.062249243,2.791639,9.176975,-0.037873644,-0.04642576,-0.29565877
1757149050409,-0.062249243,2.791639,9.176975,0.004886922,-0.13927728,-0.24312437
1757149050467,0.0023942017,2.5378537,9.502586,0.004886922,-0.13927728,-0.24312437
1757149050469,0.0023942017,2.5378537,9.502586,-0.036651913,-0.16126843,-0.1685988
1757149050527,-0.320823,2.5115175,9.588778,-0.036651913,-0.16126843,-0.1685988
1757149050529,-0.320823,2.5115175,9.588778,-0.8894198,-0.31642818,0.16371189
1757149050588,-1.6903064,0.16519992,10.532093,-0.8894198,-0.31642818,0.16371189
1757149050590,-1.6903064,0.16519992,10.532093,-3.0042353,-0.657291,0.4813618
1757149050647,-0.5602432,-3.775656,6.579266,-3.0042353,-0.657291,0.4813618
1757149050651,-0.5602432,-3.775656,6.579266,-7.0787063,-1.4966198,-0.03176499
1757149050707,3.6008794,-9.667787,4.76925,-7.0787063,-1.4966198,-0.03176499
1757149050709,3.6008794,-9.667787,4.76925,-6.745174,-1.72264,-0.9419542
1757149050767,5.571307,-10.144233,4.3287168,-6.745174,-1.72264,-0.9419542
1757149050769,5.571307,-10.144233,4.3287168,-3.9217548,-1.5112807,-1.6847663
1757149050828,7.1251445,-7.4603324,4.355053,-3.9217548,-1.5112807,-1.6847663
1757149050830,7.1251445,-7.4603324,4.355053,-2.375044,-1.2522738,-1.844813
1757149050883,8.173804,-5.7963624,1.8746599,-2.375044,-1.2522738,-1.844813
1757149050885,8.173804,-5.7963624,1.8746599,-2.982244,-0.68539083,-1.6077974
1757149050945,8.717288,-7.5944076,2.078167,-2.982244,-0.68539083,-1.6077974
1757149050947,8.717288,-7.5944076,2.078167,-2.801428,0.31764993,-1.3585643
1757149051007,9.68694,-5.3582234,1.6950948,-2.801428,0.31764993,-1.3585643
1757149051009,9.68694,-5.3582234,1.6950948,-0.5864306,1.2779301,-0.97005403
1757149051067,7.2304893,-6.706159,1.3431472,-0.5864306,1.2779301,-0.97005403
1757149051069,7.2304893,-6.706159,1.3431472,-1.0714576,1.7849482,-0.63041294
1757149051128,5.7604494,-5.434838,2.0231004,-1.0714576,1.7849482,-0.63041294
1757149051130,5.7604494,-5.434838,2.0231004,-0.042760566,1.7397442,-0.42638394
1757149051188,5.020641,-7.0341644,2.4277205,-0.042760566,1.7397442,-0.42638394
1757149051190,5.020641,-7.0341644,2.4277205,0.42638394,1.0983357,-0.21502456
1757149051248,4.8698063,-7.237672,2.4827871,0.42638394,1.0983357,-0.21502456
1757149051250,4.8698063,-7.237672,2.4827871,0.66828656,0.24190263,-0.15393804
1757149051305,4.2664676,-5.707777,3.9001546,0.66828656,0.24190263,-0.15393804
1757149051307,4.2664676,-5.707777,3.9001546,1.4208726,0.17837265,0.23335053
1757149051368,13.139379,-15.061923,1.2066777,1.4208726,0.17837265,0.23335053
1757149051370,13.139379,-15.061923,1.2066777,-0.3213151,0.93584555,1.1899655
1757149051429,3.7565024,-5.530606,5.0876784,-0.3213151,0.93584555,1.1899655
1757149051432,3.7565024,-5.530606,5.0876784,1.4001031,0.7684685,0.007330383
1757149051488,4.939238,-5.0613422,4.936844,1.4001031,0.7684685,0.007330383
1757149051490,4.939238,-5.0613422,4.936844,0.021991149,0.75991637,0.03176499
1757149051549,5.8466406,-5.2887917,6.253655,0.021991149,0.75991637,0.03176499
1757149051551,5.8466406,-5.2887917,6.253655,-0.02076942,1.3548992,-0.2761111
1757149051608,5.17387,-5.8586116,6.3326635,-0.02076942,1.3548992,-0.2761111
1757149051610,5.17387,-5.8586116,6.3326635,0.22235495,1.1068878,-0.3811799
1757149051671,5.3606176,-4.4603977,5.451597,0.22235495,1.1068878,-0.3811799
1757149051673,5.3606176,-4.4603977,5.451597,-0.22235495,0.91751957,-0.2968805
1757149051729,6.26802,-4.630386,5.839458,-0.22235495,0.91751957,-0.2968805
1757149051731,6.26802,-4.630386,5.839458,0.408058,1.0629056,0.112399206
1757149051789,6.3542113,-3.0334535,4.4603977,0.408058,1.0629056,0.112399206
1757149051791,6.3542113,-3.0334535,4.4603977,0.22602014,0.16493362,0.058643065
1757149051849,4.831499,-4.177882,4.9081135,0.22602014,0.16493362,0.058643065
1757149051852,4.831499,-4.177882,4.9081135,-0.40194935,-0.04153884,-0.034208454
1757149051909,2.906561,-3.6296098,5.1523223,-0.40194935,-0.04153884,-0.034208454
1757149051911,2.906561,-3.6296098,5.1523223,-0.7452556,-0.50335294,0.013439035
1757149051970,4.0222588,-3.5194764,4.146757,-0.7452556,-0.50335294,0.013439035
1757149051972,4.0222588,-3.5194764,4.146757,-0.6169739,-0.4202753,-0.004886922
1757149052027,4.453215,-3.952827,4.015076,-0.6169739,-0.4202753,-0.004886922
1757149052029,4.453215,-3.952827,4.015076,-0.36651915,-0.27366763,0.10995574
1757149052088,4.7907977,-5.631162,4.2066126,-0.36651915,-0.27366763,0.10995574
1757149052091,4.7907977,-5.631162,4.2066126,-0.44226643,-0.07086037,0.1685988
1757149052149,4.5034933,-6.172252,4.307169,-0.44226643,-0.07086037,0.1685988
1757149052152,4.5034933,-6.172252,4.307169,-0.5045747,0.065973446,0.13927728
1757149052206,5.1379566,-6.054936,4.9105077,-0.5045747,0.065973446,0.13927728
1757149052206,5.1379566,-6.054936,4.9105077,-0.13927728,0.09040806,-0.028099801
1757149052267,5.3103395,-6.3542113,5.118803,-0.13927728,0.09040806,-0.028099801
1757149052268,5.3103395,-6.3542113,5.118803,-0.096516706,0.20158553,-0.036651913
1757149052328,5.6527104,-6.4547677,4.9464207,-0.096516706,0.20158553,-0.036651913
1757149052329,5.6527104,-6.4547677,4.9464207,0.16126843,0.1563815,-0.08552113
1757149052389,5.506664,-6.679823,5.056554,0.16126843,0.1563815,-0.08552113
1757149052391,5.506664,-6.679823,5.056554,0.1441642,0.15393804,-0.105068825
1757149052451,5.6359506,-6.8043213,5.626374,0.1441642,0.15393804,-0.105068825
1757149052453,5.6359506,-6.8043213,5.626374,0.47891834,0.1685988,-0.14294247
1757149052509,5.6551046,-7.2568254,5.518635,0.47891834,0.1685988,-0.14294247
1757149052511,5.6551046,-7.2568254,5.518635,0.064751714,-0.040317107,-0.034208454
1757149052568,6.3063273,-6.8689647,6.679823,0.064751714,-0.040317107,-0.034208454
1757149052570,6.3063273,-6.8689647,6.679823,0.10140363,0.02321288,0.009773844
1757149052627,6.823475,-7.455544,6.6893997,0.10140363,0.02321288,0.009773844
1757149052629,6.823475,-7.455544,6.6893997,-0.14172074,-0.02565634,0.008552114
1757149052687,7.764396,-8.228871,8.169016,-0.14172074,-0.02565634,0.008552114
1757149052688,7.764396,-8.228871,8.169016,-0.103847094,-0.059864793,-0.047647487
1757149052745,7.9750857,-9.303867,8.520964,-0.103847094,-0.059864793,-0.047647487
1757149052746,7.9750857,-9.303867,8.520964,-0.118507855,-0.0842994,-0.07941248
1757149052805,8.9998045,-9.306262,8.774749,-0.118507855,-0.0842994,-0.07941248
1757149052805,8.9998045,-9.306262,8.774749,-0.06841691,-0.04520403,-0.02687807
1757149052865,8.214506,-8.422802,7.9607205,-0.06841691,-0.04520403,-0.02687807
1757149052866,8.214506,-8.422802,7.9607205,-0.043982297,-0.13927728,-0.009773844
1757149052925,7.043741,-7.740454,6.5098343,-0.043982297,-0.13927728,-0.009773844
1757149052925,7.043741,-7.740454,6.5098343,-0.042760566,-0.408058,-0.096516706
1757149052985,7.180211,-7.36217,5.985504,-0.042760566,-0.408058,-0.096516706
1757149052986,7.180211,-7.36217,5.985504,-0.5119051,-0.15393804,-0.12095132
1757149053046,5.947197,-7.3047094,5.925649,-0.5119051,-0.15393804,-0.12095132
1757149053046,5.947197,-7.3047094,5.925649,0.062308256,-0.17104226,-0.04153884
1757149053105,6.564901,-7.00304,4.6950297,0.062308256,-0.17104226,-0.04153884
1757149053106,6.564901,-7.00304,4.6950297,0.028099801,0.0842994,-0.013439035
1757149053166,6.3302693,-6.8043213,5.2121773,0.028099801,0.0842994,-0.013439035
1757149053166,6.3302693,-6.8043213,5.2121773,0.11484267,0.23823744,0.09407325
1757149053225,6.2225304,-6.703765,4.9583917,0.11484267,0.23823744,0.09407325
1757149053226,6.2225304,-6.703765,4.9583917,0.30909783,0.17959438,0.12705997
1757149053286,5.6886234,-6.6606693,5.195418,0.30909783,0.17959438,0.12705997
1757149053286,5.6886234,-6.6606693,5.195418,0.25534168,0.1881465,0.14782938
1757149053346,5.7748146,-5.686229,5.4563856,0.25534168,0.1881465,0.14782938
1757149053347,5.7748146,-5.686229,5.4563856,0.37995818,0.24190263,0.12705997
1757149053405,5.2121773,-5.303157,5.2504845,0.37995818,0.24190263,0.12705997
1757149053406,5.2121773,-5.303157,5.2504845,0.49602258,0.1966986,0.07574729
1757149053466,4.3263226,-4.9440265,4.903325,0.49602258,0.1966986,0.07574729
1757149053467,4.3263226,-4.9440265,4.903325,0.23823744,0.27122417,0.08307768
1757149053526,4.249708,-4.4101195,4.537012,0.23823744,0.27122417,0.08307768
1757149053527,4.249708,-4.4101195,4.537012,0.14660765,0.25900686,0.013439035
1757149053585,3.8187518,-3.58412,4.285621,0.14660765,0.25900686,0.013439035
1757149053586,3.8187518,-3.58412,4.285621,0.119729586,0.28344148,0.04886922
1757149053645,3.1866825,-2.9712043,3.667917,0.119729586,0.28344148,0.04886922
1757149053646,3.1866825,-2.9712043,3.667917,-0.31398472,0.1600467,0.10140363
1757149053705,2.4396915,-3.406949,4.0701427,-0.31398472,0.1600467,0.10140363
1757149053705,2.4396915,-3.406949,4.0701427,-0.32986724,-0.32986724,0.032986723
1757149053765,2.8514943,-3.25372,3.5865142,-0.32986724,-0.32986724,0.032986723
1757149053766,2.8514943,-3.25372,3.5865142,-0.4886922,-1.142318,-0.18081611
1757149053825,5.130774,-6.423643,4.5561657,-0.4886922,-1.142318,-0.18081611
1757149053825,5.130774,-6.423643,4.5561657,-0.93584555,-1.1838568,-0.22724187
1757149053885,5.058948,-7.2568254,6.8905125,-0.93584555,-1.1838568,-0.22724187
1757149053885,5.058948,-7.2568254,6.8905125,0.8381071,-1.3695599,0.12705997
1757149053945,7.053318,-6.361394,5.6527104,0.8381071,-1.3695599,0.12705997
1757149053946,7.053318,-6.361394,5.6527104,0.7171558,-1.1178834,0.40194935
1757149054005,8.147469,-4.96318,4.3598413,0.7171558,-1.1178834,0.40194935
1757149054005,8.147469,-4.96318,4.3598413,0.675617,-0.66950834,0.48624873
1757149054065,8.485051,-4.984728,2.8179753,0.675617,-0.66950834,0.48624873
1757149054065,8.485051,-4.984728,2.8179753,0.2687807,-0.26145032,0.30176744
1757149054124,7.359776,-5.140351,3.4955344,0.2687807,-0.26145032,0.30176744
1757149054125,7.359776,-5.140351,3.4955344,-0.73426,0.043982297,0.007330383
1757149054184,6.6247563,-4.9943047,3.7014358,-0.73426,0.043982297,0.007330383
1757149054185,6.6247563,-4.9943047,3.7014358,-0.49480084,0.22724187,-0.18570304
1757149054244,5.779603,-5.2768207,3.7205894,-0.49480084,0.22724187,-0.18570304
1757149054245,5.779603,-5.2768207,3.7205894,-0.98837996,0.27488935,-0.032986723
1757149054304,5.171476,-6.445191,3.1124623,-0.98837996,0.27488935,-0.032986723
1757149054305,5.171476,-6.445191,3.1124623,-0.9297369,0.061086524,0.05009095
1757149054364,5.717354,-4.4915223,4.654328,-0.9297369,0.061086524,0.05009095
1757149054365,5.717354,-4.4915223,4.654328,-0.93218035,-0.26511553,-0.1282817
1757149054424,4.261679,-7.7787614,2.7150247,-0.93218035,-0.26511553,-0.1282817
1757149054424,4.261679,-7.7787614,2.7150247,-0.84665924,-0.6450737,-0.25045475
1757149054484,4.8482585,-4.1946416,3.2585084,-0.84665924,-0.6450737,-0.25045475
1757149054485,4.8482585,-4.1946416,3.2585084,0.79779,-0.23335053,-0.04520403
1757149054544,5.3821654,-5.865794,1.8267759,0.79779,-0.23335053,-0.04520403
1757149054544,5.3821654,-5.865794,1.8267759,-0.31764993,0.26511553,0.267559
1757149054603,6.351817,-5.604826,2.9496565,-0.31764993,0.26511553,0.267559
1757149054604,6.351817,-5.604826,2.9496565,-0.081855945,0.5448918,0.28221974
1757149054664,6.0046577,-6.6846113,2.6791117,-0.081855945,0.5448918,0.28221974
1757149054664,6.0046577,-6.6846113,2.6791117,0.17715092,0.7012733,0.07819075
1757149054723,5.315128,-6.167464,3.9312792,0.17715092,0.7012733,0.07819075
1757149054724,5.315128,-6.167464,3.9312792,0.31520647,0.6072,-0.061086524
1757149054784,5.5880666,-6.5744777,3.3566709,0.31520647,0.6072,-0.061086524
1757149054784,5.5880666,-6.5744777,3.3566709,0.6072,0.37507126,-0.2125811
1757149054843,5.791574,-5.602432,3.9432502,0.6072,0.37507126,-0.2125811
1757149054843,5.791574,-5.602432,3.9432502,0.2003638,0.2919936,-0.12705997
1757149054903,6.4523735,-6.253655,4.3885717,0.2003638,0.2919936,-0.12705997
1757149054903,6.4523735,-6.253655,4.3885717,0.38606682,0.36041048,-0.039095376
1757149054963,6.090849,-7.7787614,4.201824,0.38606682,0.36041048,-0.039095376
1757149054964,6.090849,-7.7787614,4.201824,0.14172074,0.3555236,0.06719518
1757149055023,5.997475,-6.1243677,5.837064,0.14172074,0.3555236,0.06719518
1757149055023,5.997475,-6.1243677,5.837064,0.32498032,0.23701571,0.061086524
1757149055083,7.141904,-7.773973,5.0781016,0.32498032,0.23701571,0.061086524
1757149055084,7.141904,-7.773973,5.0781016,0.09162979,0.087964594,0.0720821
1757149055143,7.228095,-8.0924015,6.4427967,0.09162979,0.087964594,0.0720821
1757149055143,7.228095,-8.0924015,6.4427967,0.17715092,0.14905111,0.0036651916
1757149055202,7.6614456,-8.51857,5.9448028,0.17715092,0.14905111,0.0036651916
1757149055203,7.6614456,-8.51857,5.9448028,-0.03176499,0.02443461,-0.029321533
1757149055265,7.4627266,-8.185776,6.7947445,-0.03176499,0.02443461,-0.029321533
1757149055266,7.4627266,-8.185776,6.7947445,-0.07696902,0.095294975,-0.032986723
1757149055322,8.094796,-8.992621,6.4188547,-0.07696902,0.095294975,-0.032986723
1757149055323,8.094796,-8.992621,6.4188547,-0.029321533,0.059864793,-0.04886922
1757149055382,8.018182,-8.494628,6.8282633,-0.029321533,0.059864793,-0.04886922
1757149055383,8.018182,-8.494628,6.8282633,-0.16493362,0.036651913,-0.032986723
1757149055442,7.2711906,-8.11395,6.3542113,-0.16493362,0.036651913,-0.032986723
1757149055442,7.2711906,-8.11395,6.3542113,-0.12583824,0.23701571,-0.02076942
1757149055502,6.6103907,-7.881712,6.1746464,-0.12583824,0.23701571,-0.02076942
1757149055503,6.6103907,-7.881712,6.1746464,-0.25900686,0.17715092,0.0720821
1757149055562,6.9719152,-7.9822683,5.1666875,-0.25900686,0.17715092,0.0720821
1757149055562,6.9719152,-7.9822683,5.1666875,0.15149458,0.02443461,0.039095376
1757149055623,6.679823,-7.1227503,5.5856724,0.15149458,0.02443461,0.039095376
1757149055624,6.679823,-7.1227503,5.5856724,-0.080634214,0.057421334,0.052534413
1757149055682,6.2105594,-7.204153,5.6120086,-0.080634214,0.057421334,0.052534413
1757149055684,6.2105594,-7.204153,5.6120086,0.13439035,0.15393804,-0.008552114
1757149055745,5.3438582,-6.3182983,5.379771,0.13439035,0.15393804,-0.008552114
1757149055747,5.3438582,-6.3182983,5.379771,0.29810223,0.059864793,-0.02687807
1757149055805,5.4061074,-5.7748146,5.2265425,0.29810223,0.059864793,-0.02687807
1757149055807,5.4061074,-5.7748146,5.2265425,0.2565634,0.30787608,0.03176499
1757149055864,4.999093,-6.2488666,4.9895163,0.2565634,0.30787608,0.03176499
1757149055866,4.999093,-6.2488666,4.9895163,0.09285152,0.3371976,0.05009095
1757149055925,4.5753193,-4.903325,5.4444146,0.09285152,0.3371976,0.05009095
1757149055927,4.5753193,-4.903325,5.4444146,0.20891592,0.25167647,0.04153884
1757149055985,4.134786,-4.903325,5.3558292,0.20891592,0.25167647,0.04153884
1757149055987,4.134786,-4.903325,5.3558292,0.21991149,0.28221974,0.059864793
1757149056046,3.4811692,-4.223372,4.84347,0.21991149,0.28221974,0.059864793
1757149056048,3.4811692,-4.223372,4.84347,0.344528,0.15027285,0.06841691
1757149056104,3.0334535,-3.2944214,4.122815,0.344528,0.15027285,0.06841691
1757149056106,3.0334535,-3.2944214,4.122815,0.27488935,0.119729586,0.061086524
1757149056163,3.1148565,-3.071761,3.6822822,0.27488935,0.119729586,0.061086524
1757149056164,3.1148565,-3.071761,3.6822822,0.2932153,0.05497787,0.073303826
1757149056224,3.3446999,-3.7301662,4.606444,0.2932153,0.05497787,0.073303826
1757149056226,3.3446999,-3.7301662,4.606444,-0.10751228,0.12339478,0.07452556
1757149056285,4.1611223,-4.4723687,6.409278,-0.10751228,0.12339478,0.07452556
1757149056288,4.1611223,-4.4723687,6.409278,0.0720821,0.07941248,0.03176499
1757149056344,5.097255,-5.092467,7.599196,0.0720821,0.07941248,0.03176499
1757149056347,5.097255,-5.092467,7.599196,0.030543262,0.08552113,-0.002443461
1757149056405,5.145139,-5.437232,7.1371155,0.030543262,0.08552113,-0.002443461
1757149056407,5.145139,-5.437232,7.1371155,0.087964594,-0.12705997,-0.017104227
1757149056466,4.402937,-4.9679685,6.5481415,0.087964594,-0.12705997,-0.017104227
1757149056468,4.402937,-4.9679685,6.5481415,0.21624629,0.034208454,0.032986723
1757149056525,4.4675803,-4.7524905,6.6965823,0.21624629,0.034208454,0.032986723
1757149056527,4.4675803,-4.7524905,6.6965823,-0.042760566,0.112399206,0.07452556
1757149056586,4.5322237,-4.6806645,7.0461354,-0.042760566,0.112399206,0.07452556
1757149056588,4.5322237,-4.6806645,7.0461354,-0.2321288,-0.042760566,0.06841691
1757149056646,4.333505,-5.12838,6.9264255,-0.2321288,-0.042760566,0.06841691
1757149056648,4.333505,-5.12838,6.9264255,-0.19303341,-0.0842994,-0.002443461
1757149056707,4.570531,-4.6495395,6.4284315,-0.19303341,-0.0842994,-0.002443461
1757149056708,4.570531,-4.6495395,6.4284315,-0.20769419,-0.09407325,-0.036651913
1757149056767,4.4220905,-5.1762643,6.600814,-0.20769419,-0.09407325,-0.036651913
1757149056768,4.4220905,-5.1762643,6.600814,-0.33353242,-0.04886922,-0.030543262
1757149056823,4.132392,-5.046977,6.093243,-0.33353242,-0.04886922,-0.030543262
1757149056826,4.132392,-5.046977,6.093243,-0.119729586,-0.1563815,-0.017104227
1757149056887,4.5777135,-5.473145,5.542577,-0.119729586,-0.1563815,-0.017104227
1757149056889,4.5777135,-5.473145,5.542577,-0.344528,-0.15027285,-0.007330383
1757149056946,4.3239284,-4.999093,5.4180784,-0.344528,-0.15027285,-0.007330383
1757149056948,4.3239284,-4.999093,5.4180784,-0.17104226,-0.09285152,-0.008552114
1757149057006,4.1299977,-5.2768207,4.7620673,-0.17104226,-0.09285152,-0.008552114
1757149057008,4.1299977,-5.2768207,4.7620673,0.1441642,-0.08552113,0.017104227
1757149057067,5.035006,-4.9703627,5.657499,0.1441642,-0.08552113,0.017104227
1757149057068,5.035006,-4.9703627,5.657499,0.50335294,0.064751714,0.014660766
1757149057127,4.3646297,-4.891354,5.3366756,0.50335294,0.064751714,0.014660766
1757149057128,4.3646297,-4.891354,5.3366756,-0.015882496,0.052534413,-0.06841691
1757149057186,4.1395745,-4.378995,5.683835,-0.015882496,0.052534413,-0.06841691
1757149057188,4.1395745,-4.378995,5.683835,-0.089186326,0.05497787,-0.059864793
1757149057247,4.3861775,-4.6806645,5.8226986,-0.089186326,0.05497787,-0.059864793
1757149057248,4.3861775,-4.6806645,5.8226986,-0.032986723,0.047647487,-0.065973446
1757149057307,4.6279917,-4.9775453,5.705383,-0.032986723,0.047647487,-0.065973446
1757149057309,4.6279917,-4.9775453,5.705383,0.17104226,0.07452556,-0.09285152
1757149057367,5.0996494,-4.9440265,6.256049,0.17104226,0.07452556,-0.09285152
1757149057369,5.0996494,-4.9440265,6.256049,0.07941248,0.032986723,-0.07696902
1757149057427,5.2983685,-3.9025488,7.156269,0.07941248,0.032986723,-0.07696902
1757149057428,5.2983685,-3.9025488,7.156269,0.6462954,0.035430185,-0.11728613
1757149057486,4.7979803,-4.608838,7.1275387,0.6462954,0.035430185,-0.11728613
1757149057488,4.7979803,-4.608838,7.1275387,0.06352998,0.12461651,-0.16982053
1757149057547,4.534618,-4.9703627,6.7109475,0.06352998,0.12461651,-0.16982053
1757149057551,4.534618,-4.9703627,6.7109475,0.13072516,0.12950343,-0.04642576
1757149057607,4.853047,-5.020641,6.7684083,0.13072516,0.12950343,-0.04642576
1757149057609,4.853047,-5.020641,6.7684083,-0.17837265,0.17959438,-0.04642576
1757149057668,5.257667,-5.571307,7.807492,-0.17837265,0.17959438,-0.04642576
1757149057672,5.257667,-5.571307,7.807492,-0.062308256,0.103847094,0.014660766
1757149057728,5.5401826,-6.1004257,7.9008656,-0.062308256,0.103847094,0.014660766
1757149057730,5.5401826,-6.1004257,7.9008656,0.010995574,-0.037873644,0.07452556
1757149057788,6.160281,-6.143522,8.331821,0.010995574,-0.037873644,0.07452556
1757149057792,6.160281,-6.143522,8.331821,0.014660766,0.13194689,0.056199603
1757149057848,6.0381765,-6.131551,8.793902,0.014660766,0.13194689,0.056199603
1757149057851,6.0381765,-6.131551,8.793902,-0.0036651916,0.07452556,0.064751714
1757149057908,5.4779334,-5.619191,11.008539,-0.0036651916,0.07452556,0.064751714
1757149057911,5.4779334,-5.619191,11.008539,0.6731735,-0.056199603,-0.028099801
1757149057968,7.9726915,-7.8984714,9.907207,0.6731735,-0.056199603,-0.028099801
1757149057970,7.9726915,-7.8984714,9.907207,0.7672467,-0.18203785,-0.09896017
1757149058028,6.1387334,-6.3589997,10.275913,0.7672467,-0.18203785,-0.09896017
1757149058030,6.1387334,-6.3589997,10.275913,-0.453262,-0.004886922,-0.043982297
1757149058089,6.3302693,-6.2345014,8.743625,-0.453262,-0.004886922,-0.043982297
1757149058091,6.3302693,-6.2345014,8.743625,0.39828414,0.018325957,0.036651913
1757149058148,5.9280434,-6.5816603,8.305486,0.39828414,0.018325957,0.036651913
1757149058150,5.9280434,-6.5816603,8.305486,-0.15271631,0.087964594,0.0720821
1757149058208,5.6359506,-5.255273,8.264784,-0.15271631,0.087964594,0.0720821
1757149058210,5.6359506,-5.255273,8.264784,-0.14294247,0.14660765,0.017104227
1757149058267,5.329493,-4.948815,7.5345526,-0.14294247,0.14660765,0.017104227
1757149058269,5.329493,-4.948815,7.5345526,0.09407325,0.09040806,0.043982297
1757149058328,4.927267,-5.3103395,7.3310456,0.09407325,0.09040806,0.043982297
1757149058330,4.927267,-5.3103395,7.3310456,0.058643065,0.22479841,0.04642576
1757149058388,5.221754,-4.781221,7.311892,0.058643065,0.22479841,0.04642576
1757149058390,5.221754,-4.781221,7.311892,0.040317107,0.16371189,-0.02321288
1757149058449,4.537012,-4.3718123,6.6606693,0.040317107,0.16371189,-0.02321288
1757149058452,4.537012,-4.3718123,6.6606693,0.13316862,0.16371189,-0.040317107
1757149058508,3.9456444,-3.751714,7.1466923,0.13316862,0.16371189,-0.040317107
1757149058510,3.9456444,-3.751714,7.1466923,-0.19303341,0.24190263,-0.05009095
1757149058569,3.940856,-3.9025488,6.703765,-0.19303341,0.24190263,-0.05009095
1757149058571,3.940856,-3.9025488,6.703765,0.05009095,0.22724187,0.012217305
1757149058629,3.3854012,-3.7134068,5.8921304,0.05009095,0.22724187,0.012217305
1757149058631,3.3854012,-3.7134068,5.8921304,-0.204029,0.18448131,-0.030543262
1757149058690,3.040636,-3.3614593,4.6351743,-0.204029,0.18448131,-0.030543262
1757149058692,3.040636,-3.3614593,4.6351743,-0.38362336,-0.15393804,-0.06841691
1757149058746,2.765303,-2.5067291,4.891354,-0.38362336,-0.15393804,-0.06841691
1757149058747,2.765303,-2.5067291,4.891354,-0.7049385,-0.3200934,-0.062308256
1757149058805,2.4995465,-1.9656396,3.5936968,-0.7049385,-0.3200934,-0.062308256
1757149058807,2.4995465,-1.9656396,3.5936968,-2.1514673,-0.64751714,-0.26511553
1757149058870,4.0653543,-3.9240966,5.00867,-2.1514673,-0.64751714,-0.26511553
1757149058872,4.0653543,-3.9240966,5.00867,-0.48624873,-0.7672467,-0.32375857
1757149058928,5.2049947,-6.9527617,7.21373,-0.48624873,-0.7672467,-0.32375857
1757149058930,5.2049947,-6.9527617,7.21373,-1.0396926,-0.6743952,-0.24556783
1757149058989,5.7484784,-6.4188547,7.326257,-1.0396926,-0.6743952,-0.24556783
1757149058991,5.7484784,-6.4188547,7.326257,0.784351,-0.22357668,-0.004886922
1757149059048,5.8442464,-5.33907,5.6886234,0.784351,-0.22357668,-0.004886922
1757149059051,5.8442464,-5.33907,5.6886234,0.21746802,-0.035430185,0.33841935
1757149059110,5.645528,-5.3438582,5.41329,0.21746802,-0.035430185,0.33841935
1757149059112,5.645528,-5.3438582,5.41329,0.07819075,0.1966986,0.33353242
1757149059170,5.4563856,-5.2409077,6.203377,0.07819075,0.1966986,0.33353242
1757149059173,5.4563856,-5.2409077,6.203377,-0.007330383,0.065973446,0.16737708
1757149059229,4.96318,-5.145139,5.875371,-0.007330383,0.065973446,0.16737708
1757149059232,4.96318,-5.145139,5.875371,0.02687807,-0.25167647,0.014660766
1757149059288,5.2002063,-5.3941364,6.2225304,0.02687807,-0.25167647,0.014660766
1757149059292,5.2002063,-5.3941364,6.2225304,-0.22113322,-0.09407325,0.017104227
1757149059349,4.853047,-5.6551046,6.0836663,-0.22113322,-0.09407325,0.017104227
1757149059351,4.853047,-5.6551046,6.0836663,-0.31520647,0.02687807,0.014660766
1757149059409,4.972757,-5.779603,5.547365,-0.31520647,0.02687807,0.014660766
1757149059411,4.972757,-5.779603,5.547365,-0.39584067,0.15882497,0.13561209
1757149059469,4.084508,-5.023035,4.831499,-0.39584067,0.15882497,0.13561209
1757149059472,4.084508,-5.023035,4.831499,0.065973446,-0.073303826,0.07574729
1757149059529,3.608062,-4.331111,3.4356794,0.065973446,-0.073303826,0.07574729
1757149059532,3.608062,-4.331111,3.4356794,0.081855945,-0.20525073,-0.014660766
1757149059590,3.1603463,-3.550601,3.5817258,0.081855945,-0.20525073,-0.014660766
1757149059592,3.1603463,-3.550601,3.5817258,0.012217305,-0.15271631,-0.04520403
1757149059650,3.6296098,-3.7205894,4.0533834,0.012217305,-0.15271631,-0.04520403
1757149059652,3.6296098,-3.7205894,4.0533834,-0.6010914,0.1881465,-0.08674286
1757149059709,4.572925,-5.197812,4.6902413,-0.6010914,0.1881465,-0.08674286
1757149059711,4.572925,-5.197812,4.6902413,-0.06841691,0.35308012,0.052534413
1757149059770,4.2305546,-6.2704144,4.8027687,-0.06841691,0.35308012,0.052534413
1757149059772,4.2305546,-6.2704144,4.8027687,-0.40194935,0.16982053,-0.065973446
1757149059830,4.7141833,-5.671864,5.2289367,-0.40194935,0.16982053,-0.065973446
1757149059832,4.7141833,-5.671864,5.2289367,0.087964594,0.12705997,0.007330383
1757149059890,5.3127337,-6.517017,5.0876784,0.087964594,0.12705997,0.007330383
1757149059892,5.3127337,-6.517017,5.0876784,0.07941248,0.0,-0.02076942
1757149059950,6.31351,-5.722142,5.437232,0.07941248,0.0,-0.02076942
1757149059952,6.31351,-5.722142,5.437232,-0.12950343,-0.15882497,-0.05131268
1757149060011,5.7484784,-7.6973586,5.6407394,-0.12950343,-0.15882497,-0.05131268
1757149060013,5.7484784,-7.6973586,5.6407394,-0.07574729,-0.018325957,-0.09285152
1757149060067,5.8681884,-7.1730285,6.208165,-0.07574729,-0.018325957,-0.09285152
1757149060068,5.8681884,-7.1730285,6.208165,-0.48258355,0.02443461,-0.061086524
1757149060127,6.3566055,-7.398083,6.6486983,-0.48258355,0.02443461,-0.061086524
1757149060128,6.3566055,-7.398083,6.6486983,0.27488935,-0.03176499,-0.07086037
1757149060187,6.8330517,-7.9032598,5.9543796,0.27488935,-0.03176499,-0.07086037
1757149060187,6.8330517,-7.9032598,5.9543796,0.052534413,0.036651913,-0.021991149
1757149060247,7.055712,-8.327033,6.871359,0.052534413,0.036651913,-0.021991149
1757149060247,7.055712,-8.327033,6.871359,0.10995574,-0.032986723,0.02321288
1757149060307,7.465121,-8.683769,6.7324953,0.10995574,-0.032986723,0.02321288
1757149060307,7.465121,-8.683769,6.7324953,-0.080634214,0.043982297,-0.064751714
1757149060367,7.8769236,-9.141062,7.2783732,-0.080634214,0.043982297,-0.064751714
1757149060367,7.8769236,-9.141062,7.2783732,-0.06841691,0.0,0.061086524
1757149060427,7.21373,-8.767567,7.240066,-0.06841691,0.0,0.061086524
1757149060427,7.21373,-8.767567,7.240066,0.09040806,0.05131268,-0.0012217305
1757149060487,6.825869,-8.528147,6.8091097,0.09040806,0.05131268,-0.0012217305
1757149060487,6.825869,-8.528147,6.8091097,0.09896017,-0.013439035,0.089186326
1757149060547,7.297527,-8.0445175,6.1411276,0.09896017,-0.013439035,0.089186326
1757149060547,7.297527,-8.0445175,6.1411276,0.13194689,-0.08307768,0.018325957
1757149060606,6.423643,-7.015011,6.021417,0.13194689,-0.08307768,0.018325957
1757149060607,6.423643,-7.015011,6.021417,-0.12950343,-0.02321288,-0.019547688
1757149060667,6.789956,-7.8170686,5.74369,-0.12950343,-0.02321288,-0.019547688
1757149060668,6.789956,-7.8170686,5.74369,-0.089186326,0.04520403,-0.02687807
1757149060727,5.8586116,-7.079654,6.117185,-0.089186326,0.04520403,-0.02687807
1757149060727,5.8586116,-7.079654,6.117185,-0.16126843,0.14782938,0.02076942
1757149060790,5.1259856,-6.423643,5.781997,-0.16126843,0.14782938,0.02076942
1757149060792,5.1259856,-6.423643,5.781997,0.29565877,0.19058995,0.021991149
1757149060852,5.717354,-5.801151,5.434838,0.29565877,0.19058995,0.021991149
1757149060854,5.717354,-5.801151,5.434838,0.40194935,0.14782938,0.02321288
1757149060911,4.927267,-4.984728,5.159505,0.40194935,0.14782938,0.02321288
1757149060913,4.927267,-4.984728,5.159505,0.29932398,0.112399206,0.007330383
1757149060971,4.5561657,-5.020641,5.559336,0.29932398,0.112399206,0.007330383
1757149060972,4.5561657,-5.020641,5.559336,-0.52778757,0.07696902,-0.004886922
1757149061029,4.3718123,-5.2169657,5.923255,-0.52778757,0.07696902,-0.004886922
1757149061031,4.3718123,-5.2169657,5.923255,-0.13194689,0.004886922,-0.05131268
1757149061090,4.0318356,-5.0493712,4.3837833,-0.13194689,0.004886922,-0.05131268
1757149061092,4.0318356,-5.0493712,4.3837833,0.35063666,-0.28955013,-0.14294247
1757149061152,3.2800562,-3.6655228,3.6032736,0.35063666,-0.28955013,-0.14294247
1757149061153,3.2800562,-3.6655228,3.6032736,0.089186326,-0.33353242,-0.172264
1757149061211,2.5330653,-2.8634653,2.9400797,0.089186326,-0.33353242,-0.172264
1757149061213,2.5330653,-2.8634653,2.9400797,0.13683382,-0.2919936,-0.11362094
1757149061272,3.1675289,-2.707842,3.383007,0.13683382,-0.2919936,-0.11362094
1757149061273,3.1675289,-2.707842,3.383007,-0.09896017,0.13072516,0.029321533
1757149061330,5.149928,-5.0541596,5.6670756,-0.09896017,0.13072516,0.029321533
1757149061332,5.149928,-5.0541596,5.6670756,-0.1881465,0.087964594,0.112399206
1757149061391,6.2105594,-7.9990277,6.8929067,-0.1881465,0.087964594,0.112399206
1757149061392,6.2105594,-7.9990277,6.8929067,-0.17959438,-0.17104226,0.0
1757149061452,5.243302,-5.243302,6.337452,-0.17959438,-0.17104226,0.0
1757149061453,5.243302,-5.243302,6.337452,0.17959438,-0.1441642,0.012217305
1757149061511,5.2504845,-5.5138464,5.386954,0.17959438,-0.1441642,0.012217305
1757149061513,5.2504845,-5.5138464,5.386954,0.24190263,0.02687807,0.05375614
1757149061568,5.4324436,-4.7884035,5.315128,0.24190263,0.02687807,0.05375614
1757149061568,5.4324436,-4.7884035,5.315128,0.05497787,-0.04153884,0.015882496
1757149061627,5.568913,-5.140351,5.853823,0.05497787,-0.04153884,0.015882496
1757149061627,5.568913,-5.140351,5.853823,-0.30787608,-0.25045475,0.02443461
1757149061688,5.303157,-5.638345,5.777209,-0.30787608,-0.25045475,0.02443461
1757149061689,5.303157,-5.638345,5.777209,-0.20525073,-0.3885103,-0.02687807
1757149061753,6.1076083,-5.57849,5.3725886,-0.20525073,-0.3885103,-0.02687807
1757149061755,6.1076083,-5.57849,5.3725886,-0.26267207,-0.27488935,-0.002443461
1757149061811,5.3606176,-5.0876784,5.410896,-0.26267207,-0.27488935,-0.002443461
1757149061812,5.3606176,-5.0876784,5.410896,-0.2125811,-0.18325958,0.05131268
1757149061872,4.5657425,-4.27365,4.594473,-0.2125811,-0.18325958,0.05131268
1757149061873,4.5657425,-4.27365,4.594473,-0.16249016,-0.15882497,0.10629055
1757149061929,4.6232033,-4.144363,3.2920272,-0.16249016,-0.15882497,0.10629055
1757149061933,4.6232033,-4.144363,3.2920272,-0.08674286,-0.089186326,0.09773844
1757149061989,4.3885717,-4.450821,2.492364,-0.08674286,-0.089186326,0.09773844
1757149061992,4.3885717,-4.450821,2.492364,0.028099801,-0.004886922,0.036651913
1757149062048,4.268862,-4.3143516,3.3925838,0.028099801,-0.004886922,0.036651913
1757149062049,4.268862,-4.3143516,3.3925838,0.05131268,-0.073303826,0.015882496
1757149062109,4.915296,-6.3805475,4.0677485,0.05131268,-0.073303826,0.015882496
1757149062110,4.915296,-6.3805475,4.0677485,0.25534168,-0.30543262,0.037873644
1757149062154,5.0038815,-4.903325,5.2863975,0.25534168,-0.30543262,0.037873644
1757149062155,5.0038815,-4.903325,5.2863975,0.19425514,-0.25778514,-0.042760566
1757149062215,6.634333,-6.7708025,4.3981485,0.19425514,-0.25778514,-0.042760566
1757149062217,6.634333,-6.7708025,4.3981485,-0.14538592,-0.061086524,-0.04642576
1757149062276,5.7748146,-6.0285997,4.9320555,-0.14538592,-0.061086524,-0.04642576
1757149062278,5.7748146,-6.0285997,4.9320555,-0.36285394,0.018325957,-0.021991149
1757149062335,6.126762,-7.1371155,4.4939165,-0.36285394,0.018325957,-0.021991149
1757149062337,6.126762,-7.1371155,4.4939165,-0.014660766,0.08674286,0.057421334
1757149062396,6.349423,-6.7468605,4.644751,-0.014660766,0.08674286,0.057421334
1757149062398,6.349423,-6.7468605,4.644751,-0.20280726,-0.012217305,0.07086037
1757149062456,6.5577183,-6.801927,4.8722005,-0.20280726,-0.012217305,0.07086037
1757149062458,6.5577183,-6.801927,4.8722005,0.02443461,0.0,0.06719518
1757149062515,6.8210807,-6.895301,4.9536033,0.02443461,0.0,0.06719518
1757149062517,6.8210807,-6.895301,4.9536033,0.06352998,0.0012217305,0.04153884
1757149062574,6.823475,-7.2807674,4.8267107,0.06352998,0.0012217305,0.04153884
1757149062576,6.823475,-7.2807674,4.8267107,-0.03176499,0.0012217305,0.02565634
1757149062638,7.132327,-6.9240313,5.2361193,-0.03176499,0.0012217305,0.02565634
1757149062640,7.132327,-6.9240313,5.2361193,0.06352998,-0.02321288,0.03176499
1757149062697,7.393295,-7.9487495,5.6670756,0.06352998,-0.02321288,0.03176499
1757149062699,7.393295,-7.9487495,5.6670756,-0.0061086523,0.032986723,0.009773844
1757149062756,8.171411,-8.477868,5.6670756,-0.0061086523,0.032986723,0.009773844
1757149062758,8.171411,-8.477868,5.6670756,-0.07941248,-0.15149458,-0.0842994
1757149062817,8.485051,-7.548918,5.791574,-0.07941248,-0.15149458,-0.0842994
1757149062819,8.485051,-7.548918,5.791574,0.02321288,-0.14660765,-0.12217305
1757149062877,7.8386164,-8.820239,5.81791,0.02321288,-0.14660765,-0.12217305
1757149062880,7.8386164,-8.820239,5.81791,-0.1881465,0.004886922,0.035430185
1757149062936,7.908048,-8.176199,5.827487,-0.1881465,0.004886922,0.035430185
1757149062938,7.908048,-8.176199,5.827487,0.13561209,0.05131268,0.037873644
1757149062999,7.9583263,-7.788338,5.255273,0.13561209,0.05131268,0.037873644
1757149063001,7.9583263,-7.788338,5.255273,-0.007330383,-0.07941248,0.04886922
1757149063057,7.917625,-7.735666,6.409278,-0.007330383,-0.07941248,0.04886922
1757149063059,7.917625,-7.735666,6.409278,-0.2003638,-0.036651913,0.02565634
1757149063119,6.9120603,-7.9343843,3.6176388,-0.2003638,-0.036651913,0.02565634
1757149063120,6.9120603,-7.9343843,3.6176388,-0.3921755,-0.08307768,-0.10995574
1757149063176,7.606379,-5.861006,4.5537715,-0.3921755,-0.08307768,-0.10995574
1757149063178,7.606379,-5.861006,4.5537715,-0.37873647,0.047647487,0.015882496
1757149063237,6.6056023,-7.383718,4.5561657,-0.37873647,0.047647487,0.015882496
1757149063238,6.6056023,-7.383718,4.5561657,-0.24801129,0.18692477,-0.021991149
1757149063297,5.841852,-6.3661823,4.4364557,-0.24801129,0.18692477,-0.021991149
1757149063299,5.841852,-6.3661823,4.4364557,-0.089186326,0.18448131,-0.081855945
1757149063357,5.961562,-6.256049,3.8139634,-0.089186326,0.18448131,-0.081855945
1757149063359,5.961562,-6.256049,3.8139634,-0.008552114,0.12095132,-0.13683382
1757149063417,5.583278,-5.695806,3.9791632,-0.008552114,0.12095132,-0.13683382
1757149063419,5.583278,-5.695806,3.9791632,-0.11728613,0.111177474,-0.13561209
1757149063477,4.7524905,-5.9064956,3.8666358,-0.11728613,0.111177474,-0.13561209
1757149063479,4.7524905,-5.9064956,3.8666358,-0.081855945,0.040317107,-0.062308256
1757149063536,4.6351743,-5.257667,3.229778,-0.081855945,0.040317107,-0.062308256
1757149063538,4.6351743,-5.257667,3.229778,0.2125811,-0.04886922,-0.018325957
1757149063596,4.402937,-4.522647,3.6056678,0.2125811,-0.04886922,-0.018325957
1757149063598,4.402937,-4.522647,3.6056678,0.19058995,0.081855945,0.03176499
1757149063660,3.8498764,-4.1659107,3.028665,0.19058995,0.081855945,0.03176499
1757149063662,3.8498764,-4.1659107,3.028665,0.3885103,0.1685988,0.034208454
1757149063715,3.916914,-3.6727054,3.083732,0.3885103,0.1685988,0.034208454
1757149063716,3.916914,-3.6727054,3.083732,0.1441642,0.30665436,0.032986723
1757149063776,4.489128,-4.110844,3.9384618,0.1441642,0.30665436,0.032986723
1757149063778,4.489128,-4.110844,3.9384618,-0.002443461,0.32620203,0.02443461
1757149063836,5.961562,-6.279991,5.4420204,-0.002443461,0.32620203,0.02443461
1757149063838,5.961562,-6.279991,5.4420204,-0.42394048,0.15149458,-0.015882496
1757149063897,6.2584434,-6.8881183,5.889736,-0.42394048,0.15149458,-0.015882496
1757149063900,6.2584434,-6.8881183,5.889736,0.1966986,-0.09407325,-0.08552113
1757149063958,5.5737014,-5.803545,5.0517654,0.1966986,-0.09407325,-0.08552113
1757149063960,5.5737014,-5.803545,5.0517654,0.010995574,-0.0720821,0.035430185
1757149064018,5.379771,-5.470751,5.056554,0.010995574,-0.0720821,0.035430185
1757149064020,5.379771,-5.470751,5.056554,0.25900686,0.1282817,0.0720821
1757149064078,6.0262055,-5.638345,5.0182467,0.25900686,0.1282817,0.0720821
1757149064080,6.0262055,-5.638345,5.0182467,-0.119729586,0.062308256,0.0720821
1757149064138,5.9160724,-5.729325,5.4061074,-0.119729586,0.062308256,0.0720821
1757149064140,5.9160724,-5.729325,5.4061074,-0.27977628,-0.12461651,-0.008552114
1757149064198,5.554548,-5.662287,5.41329,-0.27977628,-0.12461651,-0.008552114
1757149064200,5.554548,-5.662287,5.41329,-0.11484267,-0.15027285,-0.021991149
1757149064258,5.377377,-5.2840033,5.0900726,-0.11484267,-0.15027285,-0.021991149
1757149064260,5.377377,-5.2840033,5.0900726,-0.2284636,-0.13927728,0.014660766
1757149064317,5.0900726,-5.085284,4.6806645,-0.2284636,-0.13927728,0.014660766
1757149064319,5.0900726,-5.085284,4.6806645,-0.2919936,-0.21868975,0.029321533
1757149064378,5.046977,-5.1020436,4.0773253,-0.2919936,-0.21868975,0.029321533
1757149064380,5.046977,-5.1020436,4.0773253,-0.4007276,-0.25045475,-0.009773844
1757149064434,4.285621,-5.2840033,3.0334535,-0.4007276,-0.25045475,-0.009773844
1757149064435,4.285621,-5.2840033,3.0334535,-0.34208453,-0.23090707,-0.034208454
1757149064495,5.3199162,-5.499481,2.44448,-0.34208453,-0.23090707,-0.034208454
1757149064495,5.3199162,-5.499481,2.44448,0.15882497,-0.18081611,0.04153884
1757149064554,4.759673,-4.984728,2.0805612,0.15882497,-0.18081611,0.04153884
1757149064555,4.759673,-4.984728,2.0805612,0.07574729,-0.14172074,0.02443461
1757149064619,5.1475334,-5.439626,3.1316159,0.07574729,-0.14172074,0.02443461
1757149064621,5.1475334,-5.439626,3.1316159,0.012217305,0.0012217305,0.096516706
1757149064675,6.090849,-6.090849,4.1419687,0.012217305,0.0012217305,0.096516706
1757149064678,6.090849,-6.090849,4.1419687,-0.5693264,-0.013439035,-0.034208454
1757149064739,6.2249246,-6.667852,4.5657425,-0.5693264,-0.013439035,-0.034208454
1757149064740,6.2249246,-6.667852,4.5657425,0.24801129,0.087964594,-0.08674286
1757149064798,6.2991447,-6.4667387,4.012682,0.24801129,0.087964594,-0.08674286
1757149064800,6.2991447,-6.4667387,4.012682,0.33475417,0.18936823,-0.07696902
1757149064857,6.0716953,-6.64391,4.0916905,0.33475417,0.18936823,-0.07696902
1757149064860,6.0716953,-6.64391,4.0916905,0.6218608,0.267559,-0.028099801
1757149064920,5.506664,-6.349423,5.3079453,0.6218608,0.267559,-0.028099801
1757149064923,5.506664,-6.349423,5.3079453,0.18570304,0.31031954,-0.07819075
1757149064979,7.9822683,-4.546589,4.9895163,0.18570304,0.31031954,-0.07819075
1757149064980,7.9822683,-4.546589,4.9895163,0.59742624,0.059864793,-0.19547687
1757149065039,6.703765,-6.7109475,4.098873,0.59742624,0.059864793,-0.19547687
1757149065040,6.703765,-6.7109475,4.098873,0.008552114,0.13439035,-0.23701571
1757149065098,6.8091097,-6.8689647,5.2409077,0.008552114,0.13439035,-0.23701571
1757149065099,6.8091097,-6.8689647,5.2409077,-0.44348818,0.17715092,-0.035430185
1757149065159,6.873753,-6.339846,5.291186,-0.44348818,0.17715092,-0.035430185
1757149065161,6.873753,-6.339846,5.291186,-0.41172317,0.06841691,-0.0036651916
1757149065219,7.4483614,-7.6375036,5.327099,-0.41172317,0.06841691,-0.0036651916
1757149065220,7.4483614,-7.6375036,5.327099,-0.073303826,0.05009095,-0.06963864
1757149065278,7.776367,-7.687782,5.889736,-0.073303826,0.05009095,-0.06963864
1757149065280,7.776367,-7.687782,5.889736,-0.18936823,-0.04153884,-0.02687807
1757149065341,8.690952,-8.305486,5.949591,-0.18936823,-0.04153884,-0.02687807
1757149065343,8.690952,-8.305486,5.949591,0.21013765,-0.17592919,-0.057421334
1757149065400,8.9519205,-8.511387,6.3326635,0.21013765,-0.17592919,-0.057421334
1757149065401,8.9519205,-8.511387,6.3326635,-0.16249016,-0.07452556,-0.05131268
1757149065459,8.573636,-8.437167,5.707777,-0.16249016,-0.07452556,-0.05131268
1757149065461,8.573636,-8.437167,5.707777,0.05009095,0.010995574,-0.004886922
1757149065518,7.7811556,-7.4483614,6.1219735,0.05009095,0.010995574,-0.004886922
1757149065520,7.7811556,-7.4483614,6.1219735,-0.16126843,0.10629055,0.052534413
1757149065580,7.867347,-7.639898,4.9583917,-0.16126843,0.10629055,0.052534413
1757149065581,7.867347,-7.639898,4.9583917,0.18570304,0.0,0.05375614
1757149065640,6.9240313,-7.1466923,4.7405195,0.18570304,0.0,0.05375614
1757149065641,6.9240313,-7.1466923,4.7405195,-0.21380283,-0.06963864,0.04520403
1757149065703,7.0102224,-5.7843914,5.00867,-0.21380283,-0.06963864,0.04520403
1757149065705,7.0102224,-5.7843914,5.00867,-0.344528,-0.02443461,0.14905111
1757149065760,7.0581064,-6.50744,5.1379566,-0.344528,-0.02443461,0.14905111
1757149065761,7.0581064,-6.50744,5.1379566,0.34574974,-0.012217305,-0.030543262
1757149065820,6.519411,-6.6893997,4.7524905,0.34574974,-0.012217305,-0.030543262
1757149065821,6.519411,-6.6893997,4.7524905,0.052534413,0.14172074,-0.03176499
1757149065880,5.6886234,-6.179435,4.596867,0.052534413,0.14172074,-0.03176499
1757149065882,5.6886234,-6.179435,4.596867,0.047647487,0.13805555,0.04886922
1757149065940,5.626374,-4.915296,4.5561657,0.047647487,0.13805555,0.04886922
1757149065942,5.626374,-4.915296,4.5561657,0.119729586,0.07696902,0.004886922
1757149065999,5.023035,-4.72376,4.4675803,0.119729586,0.07696902,0.004886922
1757149066001,5.023035,-4.72376,4.4675803,-0.11362094,-0.004886922,-0.05131268
1757149066059,4.673482,-4.4316673,4.3287168,-0.11362094,-0.004886922,-0.05131268
1757149066062,4.673482,-4.4316673,4.3287168,0.07696902,-0.039095376,-0.05131268
1757149066121,4.185065,-4.333505,3.7588966,0.07696902,-0.039095376,-0.05131268
1757149066123,4.185065,-4.333505,3.7588966,0.07086037,-0.002443461,-0.037873644
1757149066181,4.879383,-4.5178585,3.4835634,0.07086037,-0.002443461,-0.037873644
1757149066183,4.879383,-4.5178585,3.4835634,-0.17715092,0.17715092,-0.04520403
1757149066235,3.1148565,-3.5410242,3.7229836,-0.17715092,0.17715092,-0.04520403
1757149066236,3.1148565,-3.5410242,3.7229836,0.38728857,0.45081854,-0.028099801
1757149066296,4.096479,-3.5625722,3.5984852,0.38728857,0.45081854,-0.028099801
1757149066297,4.096479,-3.5625722,3.5984852,0.40317106,0.5216789,0.007330383
1757149066358,5.60722,-4.912902,4.8745947,0.40317106,0.5216789,0.007330383
1757149066360,5.60722,-4.912902,4.8745947,-0.31887165,0.3005457,0.089186326
1757149066419,6.612785,-7.0126166,6.9288197,-0.31887165,0.3005457,0.089186326
1757149066420,6.612785,-7.0126166,6.9288197,-0.79045963,-0.17837265,0.029321533
1757149066483,6.196194,-5.770026,5.45878,-0.79045963,-0.17837265,0.029321533
1757149066485,6.196194,-5.770026,5.45878,0.32986724,-0.17959438,-0.06841691
1757149066540,5.6646814,-4.999093,5.140351,0.32986724,-0.17959438,-0.06841691
1757149066542,5.6646814,-4.999093,5.140351,0.13927728,0.032986723,0.0012217305
1757149066596,5.9519854,-4.9536033,5.3366756,0.13927728,0.032986723,0.0012217305
1757149066599,5.9519854,-4.9536033,5.3366756,-0.13927728,-0.103847094,0.0012217305
1757149066663,5.5760956,-5.595249,5.329493,-0.13927728,-0.103847094,0.0012217305
1757149066665,5.5760956,-5.595249,5.329493,-0.45937067,-0.1001819,-0.002443461
1757149066720,5.997475,-5.777209,5.57849,-0.45937067,-0.1001819,-0.002443461
1757149066722,5.997475,-5.777209,5.57849,-0.40194935,-0.09407325,-0.064751714
1757149066781,6.0716953,-5.6790466,5.3318872,-0.40194935,-0.09407325,-0.064751714
1757149066782,6.0716953,-5.6790466,5.3318872,-0.16493362,-0.08307768,-0.06963864
1757149066840,5.5258174,-5.41329,5.0876784,-0.16493362,-0.08307768,-0.06963864
1757149066842,5.5258174,-5.41329,5.0876784,-0.17715092,-0.04153884,-0.052534413
1757149066900,5.3582234,-5.5976434,4.8458643,-0.17715092,-0.04153884,-0.052534413
1757149066902,5.3582234,-5.5976434,4.8458643,-0.31764993,-0.12217305,-0.04153884
1757149066956,5.0038815,-5.81791,3.6703112,-0.31764993,-0.12217305,-0.04153884
1757149066957,5.0038815,-5.81791,3.6703112,-0.10873401,-0.1881465,-0.04886922
1757149067016,4.936844,-5.4899044,3.3542767,-0.10873401,-0.1881465,-0.04886922
1757149067016,4.936844,-5.4899044,3.3542767,-0.105068825,-0.09285152,0.0061086523
1757149067076,5.245696,-5.1906295,4.0294414,-0.105068825,-0.09285152,0.0061086523
1757149067076,5.245696,-5.1906295,4.0294414,-0.18936823,-0.065973446,0.059864793
1757149067136,5.482722,-5.4300494,4.1491513,-0.18936823,-0.065973446,0.059864793
1757149067137,5.482722,-5.4300494,4.1491513,0.28344148,-0.019547688,0.13194689
1757149067197,5.0781016,-5.145139,3.5913026,0.28344148,-0.019547688,0.13194689
1757149067197,5.0781016,-5.145139,3.5913026,0.19425514,0.080634214,0.15393804
1757149067257,5.161899,-4.7309427,4.560954,0.19425514,0.080634214,0.15393804
1757149067257,5.161899,-4.7309427,4.560954,0.15149458,0.1001819,0.0842994
1757149067320,5.0254292,-6.385336,5.427655,0.15149458,0.1001819,0.0842994
1757149067322,5.0254292,-6.385336,5.427655,0.59131753,-0.058643065,0.10629055
1757149067381,6.31351,-5.056554,5.1523223,0.59131753,-0.058643065,0.10629055
1757149067383,6.31351,-5.056554,5.1523223,0.38973203,-0.014660766,0.018325957
1757149067441,5.8226986,-5.133168,4.3478703,0.38973203,-0.014660766,0.018325957
1757149067443,5.8226986,-5.133168,4.3478703,0.15760323,0.1282817,-0.010995574
1757149067501,6.0740895,-5.45878,4.4340615,0.15760323,0.1282817,-0.010995574
1757149067502,6.0740895,-5.45878,4.4340615,0.018325957,0.18936823,0.02687807
1757149067562,6.244078,-8.350976,4.5537715,0.018325957,0.18936823,0.02687807
1757149067564,6.244078,-8.350976,4.5537715,-0.54611355,0.13927728,-0.05009095
1757149067623,6.0405707,-5.437232,5.559336,-0.54611355,0.13927728,-0.05009095
1757149067624,6.0405707,-5.437232,5.559336,0.17959438,0.02321288,-0.037873644
1757149067682,6.090849,-6.7013707,4.7141833,0.17959438,0.02321288,-0.037873644
1757149067683,6.090849,-6.7013707,4.7141833,-0.29932398,0.10995574,0.014660766
1757149067741,6.215348,-5.6790466,5.8681884,-0.29932398,0.10995574,0.014660766
1757149067742,6.215348,-5.6790466,5.8681884,-0.05009095,0.14782938,0.04153884
1757149067803,6.2345014,-7.0102224,5.353435,-0.05009095,0.14782938,0.04153884
1757149067805,6.2345014,-7.0102224,5.353435,-0.54000485,0.1563815,0.02565634
1757149067862,7.2807674,-7.4028716,6.10282,-0.54000485,0.1563815,0.02565634
1757149067865,7.2807674,-7.4028716,6.10282,-0.19303341,0.08552113,0.017104227
1757149067922,7.1730285,-9.706094,5.9759274,-0.19303341,0.08552113,0.017104227
1757149067924,7.1730285,-9.706094,5.9759274,-0.12339478,-0.080634214,-0.07574729
1757149067982,7.1131735,-6.7085533,6.777985,-0.12339478,-0.080634214,-0.07574729
1757149067984,7.1131735,-6.7085533,6.777985,-0.14905111,-0.1160644,-0.09285152
1757149068043,8.516175,-8.329428,6.591237,-0.14905111,-0.1160644,-0.09285152
1757149068044,8.516175,-8.329428,6.591237,0.26389378,-0.07819075,-0.008552114
1757149068103,7.9391727,-8.736442,6.5505357,0.26389378,-0.07819075,-0.008552114
1757149068105,7.9391727,-8.736442,6.5505357,-0.2919936,0.07819075,-0.03176499
1757149068163,7.261614,-8.003817,6.730101,-0.2919936,0.07819075,-0.03176499
1757149068164,7.261614,-8.003817,6.730101,-0.009773844,0.04520403,0.064751714
1757149068223,7.216124,-8.267179,5.590461,-0.009773844,0.04520403,0.064751714
1757149068224,7.216124,-8.267179,5.590461,0.18081611,0.012217305,0.02321288
1757149068282,7.0844426,-6.919243,5.257667,0.18081611,0.012217305,0.02321288
1757149068284,7.0844426,-6.919243,5.257667,-0.10629055,-0.08552113,0.052534413
1757149068343,6.7468605,-7.0964136,4.829105,-0.10629055,-0.08552113,0.052534413
1757149068344,6.7468605,-7.0964136,4.829105,-0.19792034,-0.103847094,0.042760566
1757149068402,5.2480903,-6.196194,5.0900726,-0.19792034,-0.103847094,0.042760566
1757149068404,5.2480903,-6.196194,5.0900726,-2.0659463,0.3005457,0.029321533
1757149068462,5.506664,-5.5641246,5.2744265,-2.0659463,0.3005457,0.029321533
1757149068464,5.506664,-5.5641246,5.2744265,0.6084218,0.030543262,0.10995574
1757149068520,6.8306575,-7.091625,3.4380736,0.6084218,0.030543262,0.10995574
1757149068521,6.8306575,-7.091625,3.4380736,-0.61941737,0.18203785,0.13316862
1757149068583,6.2129536,-8.080431,3.1794999,-0.61941737,0.18203785,0.13316862
1757149068584,6.2129536,-8.080431,3.1794999,0.25411993,0.3359759,-0.02687807
1757149068641,4.891354,-6.469133,5.3127337,0.25411993,0.3359759,-0.02687807
1757149068643,4.891354,-6.469133,5.3127337,0.064751714,0.3005457,-0.032986723
1757149068702,3.9935284,-6.373365,4.8578353,0.064751714,0.3005457,-0.032986723
1757149068704,3.9935284,-6.373365,4.8578353,0.204029,0.21868975,-0.0036651916
1757149068762,3.071761,-4.620809,3.8163576,0.204029,0.21868975,-0.0036651916
1757149068763,3.071761,-4.620809,3.8163576,0.5546656,0.3652974,0.1966986
1757149068823,3.3494883,-3.7493198,2.8993783,0.5546656,0.3652974,0.1966986
1757149068825,3.3494883,-3.7493198,2.8993783,0.22113322,0.24923302,0.27855456
1757149068883,3.7924154,-4.19943,2.7269957,0.22113322,0.24923302,0.27855456
1757149068884,3.7924154,-4.19943,2.7269957,0.32498032,0.032986723,0.111177474
1757149068943,4.1491513,-4.261679,3.4404678,0.32498032,0.032986723,0.111177474
1757149068945,4.1491513,-4.261679,3.4404678,0.15149458,-0.013439035,-0.062308256
1757149069003,3.727772,-4.9703627,5.889736,0.15149458,-0.013439035,-0.062308256
1757149069005,3.727772,-4.9703627,5.889736,-0.04886922,0.002443461,-0.087964594
1757149069063,3.9671922,-6.423643,5.875371,-0.04886922,0.002443461,-0.087964594
1757149069064,3.9671922,-6.423643,5.875371,0.06841691,-0.12950343,0.062308256
1757149069123,5.6670756,-6.3781533,6.167464,0.06841691,-0.12950343,0.062308256
1757149069124,5.6670756,-6.3781533,6.167464,-0.13194689,-0.06352998,0.13072516
1757149069183,4.831499,-6.3230867,5.657499,-0.13194689,-0.06352998,0.13072516
1757149069184,4.831499,-6.3230867,5.657499,0.31764993,-0.07086037,0.14538592
1757149069241,5.3079453,-5.6646814,5.149928,0.31764993,-0.07086037,0.14538592
1757149069243,5.3079453,-5.6646814,5.149928,0.087964594,-0.061086524,0.09162979
1757149069303,5.473145,-5.681441,5.415684,0.087964594,-0.061086524,0.09162979
1757149069304,5.473145,-5.681441,5.415684,-0.056199603,-0.039095376,-0.07574729
1757149069364,4.5322237,-6.6271505,5.4420204,-0.056199603,-0.039095376,-0.07574729
1757149069366,4.5322237,-6.6271505,5.4420204,-0.04153884,-0.15271631,0.008552114
1757149069423,4.3263226,-6.943185,5.4683566,-0.04153884,-0.15271631,0.008552114
1757149069425,4.3263226,-6.943185,5.4683566,0.1441642,-0.24801129,0.040317107
1757149069483,4.1515455,-6.7923503,5.6000376,0.1441642,-0.24801129,0.040317107
1757149069484,4.1515455,-6.7923503,5.6000376,0.1685988,-0.16493362,0.06352998
1757149069542,4.0294414,-6.4858923,5.530606,0.1685988,-0.16493362,0.06352998
1757149069544,4.0294414,-6.4858923,5.530606,0.17592919,-0.059864793,-0.0012217305
1757149069603,4.0438066,-5.9184666,5.6407394,0.17592919,-0.059864793,-0.0012217305
1757149069605,4.0438066,-5.9184666,5.6407394,-0.20647246,-0.1685988,-0.26511553
1757149069664,4.417302,-6.5840545,6.0621185,-0.20647246,-0.1685988,-0.26511553
1757149069665,4.417302,-6.5840545,6.0621185,-0.49235737,0.04886922,-0.3640757
1757149069723,5.6790466,-6.691794,5.8705826,-0.49235737,0.04886922,-0.3640757
1757149069724,5.6790466,-6.691794,5.8705826,-0.49968776,-0.111177474,-0.376293
1757149069782,5.98311,-5.434838,4.9895163,-0.49968776,-0.111177474,-0.376293
1757149069784,5.98311,-5.434838,4.9895163,0.02321288,0.24312437,-0.2284636
1757149069843,9.715671,-4.405331,5.317522,0.02321288,0.24312437,-0.2284636
1757149069844,9.715671,-4.405331,5.317522,-0.3286455,0.07452556,-0.17348573
1757149069903,6.43322,-5.5282116,5.777209,-0.3286455,0.07452556,-0.17348573
1757149069904,6.43322,-5.5282116,5.777209,-0.24312437,-0.061086524,-0.44104472
1757149069963,4.924873,-4.297592,4.8578353,-0.24312437,-0.061086524,-0.44104472
1757149069964,4.924873,-4.297592,4.8578353,0.10262536,0.14172074,-0.15393804
1757149070023,6.679823,-5.329493,4.6112323,0.10262536,0.14172074,-0.15393804
1757149070024,6.679823,-5.329493,4.6112323,-0.056199603,-0.09162979,0.18081611
1757149070082,7.6973586,-5.509058,5.269638,-0.056199603,-0.09162979,0.18081611
1757149070084,7.6973586,-5.509058,5.269638,0.073303826,-0.24801129,0.23579398
1757149070141,6.114791,-5.3342814,5.5138464,0.073303826,-0.24801129,0.23579398
1757149070143,6.114791,-5.3342814,5.5138464,0.5375614,-0.23823744,0.36163223
1757149070203,6.303933,-6.6295447,5.3223104,0.5375614,-0.23823744,0.36163223
1757149070205,6.303933,-6.6295447,5.3223104,0.27000242,-0.453262,0.29932398
1757149070263,4.268862,-8.4108305,5.3486466,0.27000242,-0.453262,0.29932398
1757149070265,4.268862,-8.4108305,5.3486466,0.080634214,-0.18570304,0.112399206
1757149070323,3.6056678,-7.1227503,4.9703627,0.080634214,-0.18570304,0.112399206
1757149070325,3.6056678,-7.1227503,4.9703627,0.79779,-0.17348573,0.2883284
1757149070381,4.1491513,-6.3206925,4.747702,0.79779,-0.17348573,0.2883284
1757149070382,4.1491513,-6.3206925,4.747702,0.39828414,-0.24678956,0.48380527
1757149070444,4.1276035,-5.7843914,4.6902413,0.39828414,-0.24678956,0.48380527
1757149070445,4.1276035,-5.7843914,4.6902413,0.06352998,-0.02443461,0.39461896
1757149070500,4.5298295,-4.8865657,4.7788267,0.06352998,-0.02443461,0.39461896
1757149070501,4.5298295,-4.8865657,4.7788267,-0.4972443,0.12095132,0.21624629
1757149070561,4.3478703,-5.0254292,4.414908,-0.4972443,0.12095132,0.21624629
1757149070563,4.3478703,-5.0254292,4.414908,-0.5314528,0.16615535,-0.032986723
1757149070623,4.7548847,-5.032612,4.0773253,-0.5314528,0.16615535,-0.032986723
1757149070625,4.7548847,-5.032612,4.0773253,-0.59498274,0.23457226,-0.08307768
1757149070681,4.343082,-4.441244,3.0597897,-0.59498274,0.23457226,-0.08307768
1757149070684,4.343082,-4.441244,3.0597897,0.13194689,0.018325957,-0.059864793
1757149070743,4.3406878,-5.0158525,3.4380736,0.13194689,0.018325957,-0.059864793
1757149070745,4.3406878,-5.0158525,3.4380736,0.75136423,0.16371189,-0.017104227
1757149070803,4.6375685,-4.8937483,3.8019924,0.75136423,0.16371189,-0.017104227
1757149070805,4.6375685,-4.8937483,3.8019924,0.0061086523,0.25167647,-0.028099801
1757149070864,5.1140146,-5.6431336,4.560954,0.0061086523,0.25167647,-0.028099801
1757149070866,5.1140146,-5.6431336,4.560954,0.08674286,0.29077184,-0.07452556
1757149070919,4.7548847,-6.8282633,4.572925,0.08674286,0.29077184,-0.07452556
1757149070921,4.7548847,-6.8282633,4.572925,-0.22602014,0.2321288,0.029321533
1757149070984,5.2983685,-6.4380083,5.161899,-0.22602014,0.2321288,0.029321533
1757149070987,5.2983685,-6.4380083,5.161899,-0.2565634,0.0720821,0.06963864
1757149071028,4.8243165,-7.575254,4.7261543,-0.2565634,0.0720821,0.06963864
1757149071030,4.8243165,-7.575254,4.7261543,-0.3494149,-0.002443461,0.12461651
1757149071085,5.7724204,-7.1395097,6.327875,-0.3494149,-0.002443461,0.12461651
1757149071087,5.7724204,-7.1395097,6.327875,-0.41416663,-0.012217305,0.07696902
1757149071144,6.030994,-8.832211,6.457162,-0.41416663,-0.012217305,0.07696902
1757149071146,6.030994,-8.832211,6.457162,-0.007330383,0.0842994,0.014660766
1757149071203,5.825093,-7.398083,6.4140663,-0.007330383,0.0842994,0.014660766
1757149071204,5.825093,-7.398083,6.4140663,-0.21135938,0.1001819,0.0061086523
1757149071264,5.8083334,-8.66701,5.8107276,-0.21135938,0.1001819,0.0061086523
1757149071265,5.8083334,-8.66701,5.8107276,0.2846632,0.204029,0.06963864
1757149071327,5.9639564,-8.159439,7.419631,0.2846632,0.204029,0.06963864
1757149071328,5.9639564,-8.159439,7.419631,-0.24678956,0.14905111,-0.02565634
1757149071383,7.144298,-9.773131,7.855376,-0.24678956,0.14905111,-0.02565634
1757149071384,7.144298,-9.773131,7.855376,0.35796702,0.0720821,-0.02687807
1757149071445,7.055712,-10.836157,7.2687964,0.35796702,0.0720821,-0.02687807
1757149071446,7.055712,-10.836157,7.2687964,-0.05375614,-0.15760323,0.13805555
1757149071504,6.7564373,-8.7771435,7.7787614,-0.05375614,-0.15760323,0.13805555
1757149071505,6.7564373,-8.7771435,7.7787614,0.09407325,-0.002443461,-0.036651913
1757149071566,6.0860605,-7.9583263,6.9862804,0.09407325,-0.002443461,-0.036651913
1757149071568,6.0860605,-7.9583263,6.9862804,0.172264,0.12339478,-0.14660765
1757149071629,6.469133,-7.5848308,5.865794,0.172264,0.12339478,-0.14660765
1757149071631,6.469133,-7.5848308,5.865794,0.15393804,0.04886922,-0.21746802
1757149071686,5.93762,-7.8529816,5.2887917,0.15393804,0.04886922,-0.21746802
1757149071687,5.93762,-7.8529816,5.2887917,-0.0720821,-0.0842994,-0.17837265
1757149071744,5.506664,-7.809886,6.7372837,-0.0720821,-0.0842994,-0.17837265
1757149071745,5.506664,-7.809886,6.7372837,-0.111177474,-0.019547688,-0.15882497
1757149071803,5.3678,-7.2783732,6.0022635,-0.111177474,-0.019547688,-0.15882497
1757149071804,5.3678,-7.2783732,6.0022635,0.18936823,0.037873644,-0.02565634
1757149071864,5.104438,-6.167464,5.0038815,0.18936823,0.037873644,-0.02565634
1757149071865,5.104438,-6.167464,5.0038815,0.24678956,0.12217305,0.07696902
1757149071926,4.924873,-5.2241483,4.7381253,0.24678956,0.12217305,0.07696902
1757149071927,4.924873,-5.2241483,4.7381253,-0.13072516,0.08552113,0.014660766
1757149071984,4.3287168,-4.8338933,5.4300494,-0.13072516,0.08552113,0.014660766
1757149071985,4.3287168,-4.8338933,5.4300494,-0.13194689,0.06719518,0.021991149
1757149072046,3.454833,-5.2145715,4.745308,-0.13194689,0.06719518,0.021991149
1757149072048,3.454833,-5.2145715,4.745308,0.065973446,0.05375614,0.012217305
1757149072106,3.3758245,-4.10845,3.9743748,0.065973446,0.05375614,0.012217305
1757149072107,3.3758245,-4.10845,3.9743748,0.6218608,-0.07941248,0.02687807
1757149072167,2.6144683,-3.5482068,2.9113493,0.6218608,-0.07941248,0.02687807
1757149072169,2.6144683,-3.5482068,2.9113493,0.18692477,-0.22724187,-0.0012217305
1757149072227,2.15957,-2.8275523,3.0573955,0.18692477,-0.22724187,-0.0012217305
1757149072228,2.15957,-2.8275523,3.0573955,0.40683624,-0.28099802,-0.015882496
1757149072288,3.4141316,-3.608062,4.6782703,0.40683624,-0.28099802,-0.015882496
1757149072290,3.4141316,-3.608062,4.6782703,0.08674286,-0.10262536,0.07696902
1757149072348,5.741296,-6.114791,6.8641763,0.08674286,-0.10262536,0.07696902
1757149072349,5.741296,-6.114791,6.8641763,-0.8576548,-0.12950343,0.047647487
1757149072408,6.469133,-8.250419,6.8545995,-0.8576548,-0.12950343,0.047647487
1757149072410,6.469133,-8.250419,6.8545995,-0.7122689,-0.41905355,-0.04886922
1757149072468,5.1475334,-5.604826,5.571307,-0.7122689,-0.41905355,-0.04886922
1757149072470,5.1475334,-5.604826,5.571307,0.84665924,0.0012217305,-0.07086037
1757149072527,4.8362875,-4.6591167,5.085284,0.84665924,0.0012217305,-0.07086037
1757149072529,4.8362875,-4.6591167,5.085284,0.16249016,0.008552114,-0.032986723
1757149072587,5.0781016,-5.080496,5.60722,0.16249016,0.008552114,-0.032986723
1757149072589,5.0781016,-5.080496,5.60722,-0.45937067,-0.16371189,-0.018325957
1757149072649,5.231331,-6.217742,6.196194,-0.45937067,-0.16371189,-0.018325957
1757149072652,5.231331,-6.217742,6.196194,-0.77946407,-0.30787608,-0.0842994
1757149072709,4.8099513,-5.5856724,5.279215,-0.77946407,-0.30787608,-0.0842994
1757149072711,4.8099513,-5.5856724,5.279215,-0.11362094,-0.3323107,-0.13072516
1757149072768,4.972757,-5.437232,4.5681367,-0.11362094,-0.3323107,-0.13072516
1757149072770,4.972757,-5.437232,4.5681367,-0.5155703,-0.31764993,-0.039095376
1757149072829,4.489128,-5.475539,4.6519337,-0.5155703,-0.31764993,-0.039095376
1757149072831,4.489128,-5.475539,4.6519337,-0.49480084,-0.35918877,0.02076942
1757149072888,3.6056678,-4.8578353,3.3399115,-0.49480084,-0.35918877,0.02076942
1757149072890,3.6056678,-4.8578353,3.3399115,0.096516706,-0.25167647,0.008552114
1757149072948,4.805163,-4.2760444,2.6503813,0.096516706,-0.25167647,0.008552114
1757149072950,4.805163,-4.2760444,2.6503813,0.3885103,-0.21380283,0.008552114
1757149073009,6.3087215,-7.050924,3.9193082,0.3885103,-0.21380283,0.008552114
1757149073011,6.3087215,-7.050924,3.9193082,0.79045963,0.035430185,-0.034208454
1757149073068,5.2145715,-3.8905778,5.3103395,0.79045963,0.035430185,-0.034208454
1757149073070,5.2145715,-3.8905778,5.3103395,1.7397442,-0.02321288,-0.0012217305
1757149073129,5.7604494,-5.8801594,4.534618,1.7397442,-0.02321288,-0.0012217305
1757149073131,5.7604494,-5.8801594,4.534618,0.2968805,0.16371189,-0.017104227
1757149073189,5.403713,-3.2202013,5.1666875,0.2968805,0.16371189,-0.017104227
1757149073191,5.403713,-3.2202013,5.1666875,0.59986967,0.18448131,0.05009095
1757149073250,6.0597243,-5.7029886,4.4843397,0.59986967,0.18448131,0.05009095
1757149073251,6.0597243,-5.7029886,4.4843397,-0.16249016,0.09040806,0.062308256
1757149073309,7.132327,-5.403713,5.4899044,-0.16249016,0.09040806,0.062308256
1757149073311,7.132327,-5.403713,5.4899044,-0.38728857,0.1685988,0.10140363
1757149073369,6.667852,-6.4068837,5.8801594,-0.38728857,0.1685988,0.10140363
1757149073371,6.667852,-6.4068837,5.8801594,-0.7501425,0.1600467,0.007330383
1757149073430,5.9783216,-6.967127,6.3805475,-0.7501425,0.1600467,0.007330383
1757149073431,5.9783216,-6.967127,6.3805475,0.2968805,0.23823744,0.021991149
1757149073489,5.98311,-7.216124,6.090849,0.2968805,0.23823744,0.021991149
1757149073491,5.98311,-7.216124,6.090849,-0.14905111,0.18081611,0.040317107
1757149073550,6.229713,-6.301539,7.2951326,-0.14905111,0.18081611,0.040317107
1757149073552,6.229713,-6.301539,7.2951326,0.118507855,0.27122417,0.17470746
1757149073610,6.172252,-7.4028716,5.971139,0.118507855,0.27122417,0.17470746
1757149073612,6.172252,-7.4028716,5.971139,0.13805555,0.1282817,0.16982053
1757149073670,6.7851677,-6.540959,6.979098,0.13805555,0.1282817,0.16982053
1757149073672,6.7851677,-6.540959,6.979098,-0.061086524,0.09773844,-0.036651913
1757149073730,8.037335,-7.0245876,7.4124484,-0.061086524,0.09773844,-0.036651913
1757149073732,8.037335,-7.0245876,7.4124484,-0.13194689,0.021991149,-0.2443461
1757149073789,6.9982514,-7.395689,7.9032598,-0.13194689,0.021991149,-0.2443461
1757149073790,6.9982514,-7.395689,7.9032598,0.040317107,-0.032986723,-0.12583824
1757149073850,6.6989765,-7.920019,7.905654,0.040317107,-0.032986723,-0.12583824
1757149073852,6.6989765,-7.920019,7.905654,0.29077184,0.096516706,-0.008552114
1757149073909,7.0245876,-8.662222,6.555324,0.29077184,0.096516706,-0.008552114
1757149073911,7.0245876,-8.662222,6.555324,0.61086524,-0.004886922,-0.081855945
1757149073970,6.579266,-4.5441947,8.4108305,0.61086524,-0.004886922,-0.081855945
1757149073972,6.579266,-4.5441947,8.4108305,1.0629056,-0.13561209,-0.058643065
1757149074029,6.667852,-6.291962,7.3286514,1.0629056,-0.13561209,-0.058643065
1757149074031,6.667852,-6.291962,7.3286514,-0.08674286,-0.13316862,0.004886922
1757149074089,7.0006456,-6.8785415,7.704541,-0.08674286,-0.13316862,0.004886922
1757149074092,7.0006456,-6.8785415,7.704541,-0.20769419,-0.021991149,0.0012217305
1757149074148,5.911284,-6.1100025,6.9503675,-0.20769419,-0.021991149,0.0012217305
1757149074149,5.911284,-6.1100025,6.9503675,-0.08674286,-0.23945917,-0.089186326
1757149074208,6.155493,-4.6016555,6.327875,-0.08674286,-0.23945917,-0.089186326
1757149074209,6.155493,-4.6016555,6.327875,-0.11484267,-0.21746802,-0.14294247
1757149074271,6.1100025,-4.819528,5.4300494,-0.11484267,-0.21746802,-0.14294247
1757149074272,6.1100025,-4.819528,5.4300494,-0.37384954,-0.10629055,-0.056199603
1757149074330,5.971139,-5.2983685,5.8203044,-0.37384954,-0.10629055,-0.056199603
1757149074332,5.971139,-5.2983685,5.8203044,-0.47769663,0.09040806,-0.10873401
1757149074389,4.6399627,-5.0374002,5.837064,-0.47769663,0.09040806,-0.10873401
1757149074391,4.6399627,-5.0374002,5.837064,-0.5656612,-0.034208454,-0.039095376
1757149074451,4.003105,-4.3239284,5.33907,-0.5656612,-0.034208454,-0.039095376
1757149074453,4.003105,-4.3239284,5.33907,0.09040806,-0.0720821,-0.004886922
1757149074511,4.6016555,-3.3997664,4.548983,0.09040806,-0.0720821,-0.004886922
1757149074512,4.6016555,-3.3997664,4.548983,0.081855945,-0.059864793,0.008552114
1757149074571,4.31914,-2.8754363,3.892972,0.081855945,-0.059864793,0.008552114
1757149074572,4.31914,-2.8754363,3.892972,0.22235495,0.040317107,-0.1001819
1757149074631,3.2441432,-2.6120741,3.7660792,0.22235495,0.040317107,-0.1001819
1757149074632,3.2441432,-2.6120741,3.7660792,0.6609562,0.23823744,-0.23579398
1757149074691,3.229778,-2.566584,3.4691982,0.6609562,0.23823744,-0.23579398
1757149074692,3.229778,-2.566584,3.4691982,0.49480084,0.2932153,-0.18325958
1757149074751,4.8745947,-4.477157,6.3661823,0.49480084,0.2932153,-0.18325958
1757149074753,4.8745947,-4.477157,6.3661823,-0.5839872,0.10262536,0.103847094
1757149074811,7.690176,-6.5026517,7.201759,-0.5839872,0.10262536,0.103847094
1757149074812,7.690176,-6.5026517,7.201759,-1.1264355,-0.2565634,0.18936823
1757149074871,5.221754,-6.0884547,7.1993647,-1.1264355,-0.2565634,0.18936823
1757149074873,5.221754,-6.0884547,7.1993647,0.18203785,0.058643065,0.019547688
1757149074931,5.590461,-4.24492,5.497087,0.18203785,0.058643065,0.019547688
1757149074932,5.590461,-4.24492,5.497087,0.5522222,0.10262536,0.019547688
1757149074992,6.0262055,-4.3023806,5.8562174,0.5522222,0.10262536,0.019547688
1757149074993,6.0262055,-4.3023806,5.8562174,-0.31642818,0.017104227,0.05375614
1757149075051,5.6359506,-5.3582234,6.3350577,-0.31642818,0.017104227,0.05375614
1757149075053,5.6359506,-5.3582234,6.3350577,-0.16249016,-0.105068825,0.03176499
1757149075111,5.6215854,-4.72376,5.9160724,-0.16249016,-0.105068825,0.03176499
1757149075112,5.6215854,-4.72376,5.9160724,0.16615535,-0.19425514,-0.03176499
1757149075168,5.829881,-4.1371803,6.0262055,0.16615535,-0.19425514,-0.03176499
1757149075169,5.829881,-4.1371803,6.0262055,-0.089186326,-0.13683382,0.008552114
1757149075231,5.08289,-5.231331,6.143522,-0.089186326,-0.13683382,0.008552114
1757149075233,5.08289,-5.231331,6.143522,-0.58276546,-0.13927728,0.039095376
1757149075292,5.0278234,-4.7524905,5.7005944,-0.58276546,-0.13927728,0.039095376
1757149075293,5.0278234,-4.7524905,5.7005944,-0.31887165,-0.20525073,0.05375614
1757149075353,4.8817773,-4.4915223,4.987122,-0.31887165,-0.20525073,0.05375614
1757149075354,4.8817773,-4.4915223,4.987122,-0.3640757,-0.23457226,0.089186326
1757149075412,4.0222588,-4.2784386,3.6104562,-0.3640757,-0.23457226,0.089186326
1757149075413,4.0222588,-4.2784386,3.6104562,0.18936823,-0.20280726,0.04886922
1757149075470,4.8027687,-3.4979286,2.9783869,0.18936823,-0.20280726,0.04886922
1757149075471,4.8027687,-3.4979286,2.9783869,0.6243043,0.0036651916,0.07086037
1757149075528,4.855441,-4.000711,2.966416,0.6243043,0.0036651916,0.07086037
1757149075529,4.855441,-4.000711,2.966416,-0.19303341,0.19792034,0.057421334
1757149075588,5.719748,-5.257667,4.175488,-0.19303341,0.19792034,0.057421334
1757149075588,5.719748,-5.257667,4.175488,-0.17104226,0.39706242,0.17104226
1757149075648,4.9176903,-5.6000376,5.315128,-0.17104226,0.39706242,0.17104226
1757149075649,4.9176903,-5.6000376,5.315128,0.089186326,0.38606682,0.13805555
1757149075708,5.255273,-5.9400144,5.0661306,0.089186326,0.38606682,0.13805555
1757149075708,5.255273,-5.9400144,5.0661306,0.18692477,0.05375614,0.07086037
1757149075768,6.603208,-5.8203044,6.145916,0.18692477,0.05375614,0.07086037
1757149075769,6.603208,-5.8203044,6.145916,0.12950343,0.105068825,0.035430185
1757149075828,6.0477533,-6.8306575,6.540959,0.12950343,0.105068825,0.035430185
1757149075829,6.0477533,-6.8306575,6.540959,-0.21624629,0.1563815,0.035430185
1757149075894,5.8466406,-5.8586116,7.0820484,-0.21624629,0.1563815,0.035430185
1757149075896,5.8466406,-5.8586116,7.0820484,-0.036651913,0.13072516,0.036651913
1757149075953,6.0597243,-7.062895,7.1155677,-0.036651913,0.13072516,0.036651913
1757149075954,6.0597243,-7.062895,7.1155677,0.12583824,-0.007330383,0.06352998
1757149076013,6.6271505,-6.0022635,6.9527617,0.12583824,-0.007330383,0.06352998
1757149076014,6.6271505,-6.0022635,6.9527617,0.1441642,0.10873401,-0.06352998
1757149076072,6.435614,-6.4667387,6.861782,0.1441642,0.10873401,-0.06352998
1757149076073,6.435614,-6.4667387,6.861782,-0.087964594,0.12950343,0.007330383
1757149076135,5.93762,-6.7492547,6.9144545,-0.087964594,0.12950343,0.007330383
1757149076137,5.93762,-6.7492547,6.9144545,-0.10873401,0.17348573,-0.07086037
1757149076193,5.901707,-6.655881,6.8282633,-0.10873401,0.17348573,-0.07086037
1757149076194,5.901707,-6.655881,6.8282633,-0.002443461,0.057421334,-0.02565634
1757149076253,5.9878983,-7.21373,6.871359,-0.002443461,0.057421334,-0.02565634
1757149076255,5.9878983,-7.21373,6.871359,-0.20280726,0.03176499,0.007330383
1757149076313,6.6606693,-7.0126166,7.4866686,-0.20280726,0.03176499,0.007330383
1757149076314,6.6606693,-7.0126166,7.4866686,-0.14172074,0.012217305,0.057421334
1757149076373,7.321469,-8.109161,7.4004774,-0.14172074,0.012217305,0.057421334
1757149076375,7.321469,-8.109161,7.4004774,-0.14049901,-0.05009095,-0.009773844
1757149076433,7.2831616,-8.3390045,7.8793178,-0.14049901,-0.05009095,-0.009773844
1757149076434,7.2831616,-8.3390045,7.8793178,-0.021991149,-0.15515977,-0.065973446
1757149076492,7.3166804,-9.165004,7.6973586,-0.021991149,-0.15515977,-0.065973446
1757149076493,7.3166804,-9.165004,7.6973586,0.9089675,-0.02565634,-0.14905111
1757149076555,7.4148426,-8.264784,6.399701,0.9089675,-0.02565634,-0.14905111
1757149076557,7.4148426,-8.264784,6.399701,0.64751714,-0.29565877,-0.17348573
1757149076614,6.5816603,-4.987122,7.433996,0.64751714,-0.29565877,-0.17348573
1757149076616,6.5816603,-4.987122,7.433996,1.2498302,-0.3885103,-0.14538592
1757149076676,6.215348,-5.00867,6.3230867,1.2498302,-0.3885103,-0.14538592
1757149076678,6.215348,-5.00867,6.3230867,-0.19303341,-0.39095375,-0.19425514
1757149076733,6.787562,-5.0254292,5.451597,-0.19303341,-0.39095375,-0.19425514
1757149076735,6.787562,-5.0254292,5.451597,-0.66950834,-0.40561453,-0.052534413
1757149076793,6.007052,-5.085284,5.805939,-0.66950834,-0.40561453,-0.052534413
1757149076795,6.007052,-5.085284,5.805939,-0.9285152,-0.58276546,-0.089186326
1757149076853,6.2991447,-5.645528,5.767632,-0.9285152,-0.58276546,-0.089186326
1757149076855,6.2991447,-5.645528,5.767632,-0.6731735,-0.6560693,-0.1600467
1757149076913,5.5880666,-4.4484267,4.8003745,-0.6731735,-0.6560693,-0.1600467
1757149076915,5.5880666,-4.4484267,4.8003745,-0.2125811,-0.7049385,-0.11362094
1757149076974,4.96318,-3.5817258,3.6224272,-0.2125811,-0.7049385,-0.11362094
1757149076976,4.96318,-3.5817258,3.6224272,-0.2968805,-0.408058,-0.028099801
1757149077033,4.039018,-3.2345665,3.1986535,-0.2968805,-0.408058,-0.028099801
1757149077035,4.039018,-3.2345665,3.1986535,0.15271631,-0.1282817,0.07696902
1757149077092,3.8762126,-2.5474305,2.0614076,0.15271631,-0.1282817,0.07696902
1757149077094,3.8762126,-2.5474305,2.0614076,-0.06963864,0.18570304,0.16982053
1757149077149,4.661511,-3.1986535,2.8443117,-0.06963864,0.18570304,0.16982053
1757149077150,4.661511,-3.1986535,2.8443117,-0.12950343,0.32742378,0.14049901
1757149077212,4.7165775,-4.572925,4.185065,-0.12950343,0.32742378,0.14049901
1757149077213,4.7165775,-4.572925,4.185065,0.23701571,0.11362094,0.0
1757149077273,7.398083,-6.3326635,5.4563856,0.23701571,0.11362094,0.0
1757149077275,7.398083,-6.3326635,5.4563856,-0.4007276,-0.034208454,0.04642576
1757149077335,6.5002575,-6.83784,6.631939,-0.4007276,-0.034208454,0.04642576
1757149077336,6.5002575,-6.83784,6.631939,0.0842994,0.056199603,0.13439035
1757149077394,6.4068837,-5.073313,5.070919,0.0842994,0.056199603,0.13439035
1757149077395,6.4068837,-5.073313,5.070919,0.98471475,0.10995574,0.36041048
1757149077455,6.0764837,-2.767697,5.5976434,0.98471475,0.10995574,0.36041048
1757149077456,6.0764837,-2.767697,5.5976434,1.7067575,0.03176499,0.79534656
1757149077514,4.9464207,-3.787627,5.2959743,1.7067575,0.03176499,0.79534656
1757149077515,4.9464207,-3.787627,5.2959743,2.07572,-0.037873644,1.5564847
1757149077574,4.9320555,-2.492364,7.0700774,2.07572,-0.037873644,1.5564847
1757149077575,4.9320555,-2.492364,7.0700774,3.010344,0.66828656,2.2602015
1757149077635,3.9983168,-3.2130187,4.9799395,3.010344,0.66828656,2.2602015
1757149077636,3.9983168,-3.2130187,4.9799395,4.783075,1.8044959,2.2504275
1757149077695,1.7597382,-0.8355764,9.734824,4.783075,1.8044959,2.2504275
1757149077697,1.7597382,-0.8355764,9.734824,6.0341268,2.5167649,1.6639969
1757149077755,1.2330139,2.861071,10.469844,6.0341268,2.5167649,1.6639969
1757149077757,1.2330139,2.861071,10.469844,4.3982296,2.2699752,1.0519099
1757149077815,-0.93373865,4.5058875,12.430696,4.3982296,2.2699752,1.0519099
1757149077816,-0.93373865,4.5058875,12.430696,3.5845573,1.4709635,0.5009095
1757149077875,-0.17717093,6.2823853,9.68694,3.5845573,1.4709635,0.5009095
1757149077876,-0.17717093,6.2823853,9.68694,0.37384954,0.5888741,0.3933972
1757149077935,0.20350714,5.801151,8.528147,0.37384954,0.5888741,0.3933972
1757149077936,0.20350714,5.801151,8.528147,0.17837265,0.47647488,0.6218608
1757149077995,-0.05746084,3.8235402,9.581595,0.17837265,0.47647488,0.6218608
1757149077996,-0.05746084,3.8235402,9.581595,0.064751714,0.036651913,0.49357912
1757149078055,-0.02633622,5.035006,7.831434,0.064751714,0.036651913,0.49357912
1757149078057,-0.02633622,5.035006,7.831434,-0.4288274,-0.1282817,0.2761111
1757149078113,0.45968673,4.903325,8.185776,-0.4288274,-0.1282817,0.2761111
1757149078115,0.45968673,4.903325,8.185776,-0.31642818,0.034208454,0.010995574
1757149078172,-0.18914193,5.473145,7.7691846,-0.31642818,0.034208454,0.010995574
1757149078174,-0.18914193,5.473145,7.7691846,0.030543262,0.16737708,-0.030543262
1757149078235,-0.25139117,4.2042184,8.9279785,0.030543262,0.16737708,-0.030543262
1757149078236,-0.25139117,4.2042184,8.9279785,-0.31398472,0.29077184,-0.007330383
1757149078294,-0.20590134,3.5218706,8.377312,-0.31398472,0.29077184,-0.007330383
1757149078295,-0.20590134,3.5218706,8.377312,-0.63529986,0.16493362,-0.019547688
1757149078356,-0.19393034,4.9703627,9.267955,-0.63529986,0.16493362,-0.019547688
1757149078358,-0.19393034,4.9703627,9.267955,0.07941248,0.26267207,0.27000242
1757149078415,-0.37828386,4.8123455,9.119514,0.07941248,0.26267207,0.27000242
1757149078417,-0.37828386,4.8123455,9.119514,-0.09162979,0.14905111,0.21380283
1757149078471,0.5363012,5.058948,9.078813,-0.09162979,0.14905111,0.21380283
1757149078471,0.5363012,5.058948,9.078813,-0.52290064,0.05375614,0.04153884
1757149078530,-0.30885202,4.498705,8.664616,-0.52290064,0.05375614,0.04153884
1757149078531,-0.30885202,4.498705,8.664616,-0.1563815,-0.02565634,-0.032986723
