timestamp,ax,ay,az,gx,gy,gz
1757748687566,5.884948,3.8283286,6.991069,-0.54000485,-0.04642576,-0.035430185
1757748687566,5.884948,3.8283286,6.991069,0.13072516,0.07819075,-0.12705997
1757748687567,6.229713,3.3925838,6.655881,0.13072516,0.07819075,-0.12705997
1757748687567,6.229713,3.3925838,6.655881,0.7012733,-0.058643065,0.12217305
1757748687585,6.423643,3.9336734,6.531382,0.7012733,-0.058643065,0.12217305
1757748687585,6.423643,3.9336734,6.531382,-0.7489208,-0.010995574,-0.13561209
1757748687606,6.567295,4.177882,6.670246,-0.7489208,-0.010995574,-0.13561209
1757748687606,6.567295,4.177882,6.670246,-0.41172317,0.10995574,-0.089186326
1757748687626,6.8282633,4.4220905,6.885724,-0.41172317,0.10995574,-0.089186326
1757748687626,6.8282633,4.4220905,6.885724,-0.7012733,0.11362094,-0.14660765
1757748687646,6.847417,5.2840033,7.0365586,-0.7012733,0.11362094,-0.14660765
1757748687646,6.847417,5.2840033,7.0365586,-0.9761627,0.172264,-0.22968534
1757748687665,6.730101,5.121197,7.627927,-0.9761627,0.172264,-0.22968534
1757748687666,6.730101,5.121197,7.627927,-1.613906,0.21624629,-0.2761111
1757748687687,5.997475,3.1747115,8.487445,-1.613906,0.21624629,-0.2761111
1757748687687,5.997475,3.1747115,8.487445,-2.2516494,0.29810223,-0.26633725
1757748687707,5.415684,1.3910311,8.935161,-2.2516494,0.29810223,-0.26633725
1757748687707,5.415684,1.3910311,8.935161,-1.2742649,0.5412266,-0.32253686
1757748687728,4.9559975,2.8179753,9.526528,-1.2742649,0.5412266,-0.32253686
1757748687728,4.9559975,2.8179753,9.526528,0.29810223,0.91507614,-0.43371433
1757748687747,3.9360676,4.003105,9.466674,0.29810223,0.91507614,-0.43371433
1757748687747,3.9360676,4.003105,9.466674,0.9211848,1.0592403,-0.50579643
1757748687767,3.572149,4.175488,8.552089,0.9211848,1.0592403,-0.50579643
1757748687767,3.572149,4.175488,8.552089,0.118507855,0.9101892,-0.5375614
1757748687786,4.2185836,2.7868507,8.413225,0.118507855,0.9101892,-0.5375614
1757748687786,4.2185836,2.7868507,8.413225,-1.1276573,0.6609562,-0.6072
1757748687808,5.2145715,0.5602432,8.7053175,-1.1276573,0.6609562,-0.6072
1757748687808,5.2145715,0.5602432,8.7053175,-2.1514673,0.44348818,-0.6426302
1757748687827,5.2145715,-1.5729905,8.643068,-2.1514673,0.44348818,-0.6426302
1757748687827,5.2145715,-1.5729905,8.643068,-2.4544566,0.28221974,-0.5717699
1757748687848,4.4316673,-1.8794483,8.123527,-2.4544566,0.28221974,-0.5717699
1757748687848,4.4316673,-1.8794483,8.123527,-1.0995574,0.23945917,-0.48258355
1757748687868,3.667917,-0.78529817,7.9248075,-1.0995574,0.23945917,-0.48258355
1757748687868,3.667917,-0.78529817,7.9248075,-0.23701571,0.20647246,-0.5216789
1757748687888,2.918532,0.035913024,7.599196,-0.23701571,0.20647246,-0.5216789
1757748687888,2.918532,0.035913024,7.599196,0.10751228,0.103847094,-0.50946164
1757748687907,2.4061728,0.7134721,7.666234,0.10751228,0.103847094,-0.50946164
1757748687908,2.4061728,0.7134721,7.666234,-0.14172074,-0.047647487,-0.43493605
1757748687928,1.9321208,0.51475334,7.563283,-0.14172074,-0.047647487,-0.43493605
1757748687928,1.9321208,0.51475334,7.563283,-0.6817256,-0.19425514,-0.26267207
1757748687946,1.163582,-0.49799395,8.030152,-0.6817256,-0.19425514,-0.26267207
1757748687947,1.163582,-0.49799395,8.030152,-1.0433578,-0.32986724,-0.14049901
1757748687968,0.6919243,-0.15801731,8.686164,-1.0433578,-0.32986724,-0.14049901
1757748687969,0.6919243,-0.15801731,8.686164,-1.2901474,-0.41416663,-0.05131268
1757748687986,0.34715924,-0.033518825,8.453926,-1.2901474,-0.41416663,-0.05131268
1757748687987,0.34715924,-0.033518825,8.453926,-1.3390167,-0.61086524,0.062308256
1757748688007,1.0414777,-0.2753332,7.7452426,-1.3390167,-0.61086524,0.062308256
1757748688007,1.0414777,-0.2753332,7.7452426,-0.91874135,-0.64751714,0.02321288
1757748688028,1.541866,-0.39264908,7.752425,-0.91874135,-0.64751714,0.02321288
1757748688028,1.541866,-0.39264908,7.752425,-0.8527679,-0.5681047,-0.14172074
1757748688048,1.7621324,1.0103531,8.111555,-0.8527679,-0.5681047,-0.14172074
1757748688048,1.7621324,1.0103531,8.111555,-1.4404203,-0.77824235,-0.15515977
1757748688068,2.6192567,1.4867992,7.5321584,-1.4404203,-0.77824235,-0.15515977
1757748688068,2.6192567,1.4867992,7.5321584,-2.2773056,-0.90408057,-0.16126843
1757748688088,3.7325604,0.30885202,6.8162923,-2.2773056,-0.90408057,-0.16126843
1757748688089,3.7325604,0.30885202,6.8162923,-3.4599407,-1.1349876,-0.21991149
1757748688107,4.5681367,-0.34237084,5.7987566,-3.4599407,-1.1349876,-0.21991149
1757748688107,4.5681367,-0.34237084,5.7987566,-4.823392,-1.4159856,-0.344528
1757748688128,6.373365,-0.51475334,5.329493,-4.823392,-1.4159856,-0.344528
1757748688128,6.373365,-0.51475334,5.329493,-5.7323594,-1.4880677,-0.30176744
1757748688151,8.3390045,-1.8339585,5.0421886,-5.7323594,-1.4880677,-0.30176744
1757748688152,8.3390045,-1.8339585,5.0421886,-6.168517,-1.4404203,-0.44593164
1757748688172,9.3733,-3.514688,4.661511,-6.168517,-1.4404203,-0.44593164
1757748688173,9.3733,-3.514688,4.661511,-6.28336,-1.3353515,-0.6010914
1757748688190,10.754754,-4.235343,4.211401,-6.28336,-1.3353515,-0.6010914
1757748688191,10.754754,-4.235343,4.211401,-6.19173,-0.95905846,-0.73426
1757748688211,10.69011,-5.7724204,5.2002063,-6.19173,-0.95905846,-0.73426
1757748688212,10.69011,-5.7724204,5.2002063,-5.5136695,-0.6426302,-0.8197812
1757748688230,10.254366,-5.8346696,6.10282,-5.5136695,-0.6426302,-0.8197812
1757748688231,10.254366,-5.8346696,6.10282,-4.6706758,-0.21013765,-0.8576548
1757748688251,10.127473,-5.183447,5.657499,-4.6706758,-0.21013765,-0.8576548
1757748688253,10.127473,-5.183447,5.657499,-3.9547415,0.27000242,-0.8344419
1757748688271,10.625467,-5.4563856,5.073313,-3.9547415,0.27000242,-0.8344419
1757748688272,10.625467,-5.4563856,5.073313,-3.8826594,0.5021312,-0.9627236
1757748688293,10.87207,-5.291186,4.0198646,-3.8826594,0.5021312,-0.9627236
1757748688295,10.87207,-5.291186,4.0198646,-4.1563272,0.6243043,-0.906524
1757748688310,10.613496,-6.337452,4.699818,-4.1563272,0.6243043,-0.906524
1757748688312,10.613496,-6.337452,4.699818,-3.7592647,0.87964594,-0.73548174
1757748688331,10.031705,-6.5098343,5.0876784,-3.7592647,0.87964594,-0.73548174
1757748688332,10.031705,-6.5098343,5.0876784,-3.604105,1.2241739,-0.75502944
1757748688351,9.825804,-5.9926867,4.381389,-3.604105,1.2241739,-0.75502944
1757748688352,9.825804,-5.9926867,4.381389,-3.7274997,1.4587462,-0.7770206
1757748688372,8.528147,-6.9288197,5.425261,-3.7274997,1.4587462,-0.7770206
1757748688373,8.528147,-6.9288197,5.425261,-3.128852,1.8533652,-0.75502944
1757748688389,7.2424603,-5.9639564,6.291962,-3.128852,1.8533652,-0.75502944
1757748688391,7.2424603,-5.9639564,6.291962,-2.348166,2.2088888,-0.75869465
1757748688409,6.3326635,-4.6351743,6.3709707,-2.348166,2.2088888,-0.75869465
1757748688410,6.3326635,-4.6351743,6.3709707,-2.0011945,2.2968533,-0.81122905
1757748688429,6.4044895,-3.5362358,5.947197,-2.0011945,2.2968533,-0.81122905
1757748688430,6.4044895,-3.5362358,5.947197,-1.8057177,2.2687535,-0.8491027
1757748688449,5.9160724,-2.789245,5.815516,-1.8057177,2.2687535,-0.8491027
1757748688450,5.9160724,-2.789245,5.815516,-1.7641789,2.4141395,-0.75869465
1757748688471,5.3606176,-3.8307228,6.1195793,-1.7641789,2.4141395,-0.75869465
1757748688475,5.3606176,-3.8307228,6.1195793,-1.7617353,2.52043,-0.6133087
1757748688491,5.779603,-5.130774,6.256049,-1.7617353,2.52043,-0.6133087
1757748688492,5.779603,-5.130774,6.256049,-1.6945401,2.5277603,-0.5876524
1757748688511,6.71813,-5.451597,5.094861,-1.6945401,2.5277603,-0.5876524
1757748688512,6.71813,-5.451597,5.094861,-1.4294246,2.4654522,-0.5314528
1757748688532,8.23366,-5.9304376,3.7732618,-1.4294246,2.4654522,-0.5314528
1757748688534,8.23366,-5.9304376,3.7732618,-1.2156218,2.2504275,-0.7244862
1757748688551,9.167398,-5.6527104,3.4452562,-1.2156218,2.2504275,-0.7244862
1757748688553,9.167398,-5.6527104,3.4452562,-1.319469,2.1661282,-0.82833326
1757748688571,10.218452,-6.7013707,2.5187001,-1.319469,2.1661282,-0.82833326
1757748688572,10.218452,-6.7013707,2.5187001,-1.3072516,2.1319196,-0.8332202
1757748688589,10.110714,-8.336611,1.6041151,-1.3072516,2.1319196,-0.8332202
1757748688591,10.110714,-8.336611,1.6041151,-1.2498302,2.1649065,-1.0311406
1757748688611,9.289502,-8.504205,1.4077905,-1.2498302,2.1649065,-1.0311406
1757748688614,9.289502,-8.504205,1.4077905,-1.0311406,2.1331415,-1.1838568
1757748688631,8.034941,-8.736442,2.2529438,-1.0311406,2.1331415,-1.1838568
1757748688632,8.034941,-8.736442,2.2529438,-0.9431759,2.0451767,-1.2168436
1757748688651,6.76362,-9.902418,2.3535004,-0.9431759,2.0451767,-1.2168436
1757748688653,6.76362,-9.902418,2.3535004,-1.3390167,1.7470746,-1.2070698
1757748688672,5.8322754,-10.78109,3.1172507,-1.3390167,1.7470746,-1.2070698
1757748688673,5.8322754,-10.78109,3.1172507,-1.2644911,1.3414601,-1.1728612
1757748688692,6.05733,-9.167398,3.1651347,-1.2644911,1.3414601,-1.1728612
1757748688694,6.05733,-9.167398,3.1651347,-0.6927212,0.90285885,-0.89675015
1757748688711,5.363012,-11.331757,1.9656396,-0.6927212,0.90285885,-0.89675015
1757748688713,5.363012,-11.331757,1.9656396,-0.1881465,0.37995818,-0.59742624
1757748688732,6.483498,-11.923124,0.23702596,-0.1881465,0.37995818,-0.59742624
1757748688734,6.483498,-11.923124,0.23702596,-0.009773844,0.21135938,-0.4569272
1757748688750,7.0724716,-12.397177,2.6240451,-0.009773844,0.21135938,-0.4569272
1757748688752,7.0724716,-12.397177,2.6240451,0.021991149,-0.09162979,-0.4447099
1757748688772,7.6375036,-11.372458,4.6375685,0.021991149,-0.09162979,-0.4447099
1757748688773,7.6375036,-11.372458,4.6375685,-0.4288274,-0.54611355,-0.37140608
1757748688791,7.2927384,-12.016499,4.3957543,-0.4288274,-0.54611355,-0.37140608
1757748688792,7.2927384,-12.016499,4.3957543,-0.9370673,-0.8552113,-0.21746802
1757748688812,8.078036,-11.9614315,3.3877954,-0.9370673,-0.8552113,-0.21746802
1757748688813,8.078036,-11.9614315,3.3877954,-1.5161675,-0.95417154,-0.25167647
1757748688831,9.363723,-10.505757,2.8395233,-1.5161675,-0.95417154,-0.25167647
1757748688832,9.363723,-10.505757,2.8395233,-1.7385225,-0.98837996,-0.3652974
1757748688853,9.7084875,-9.579201,1.5945383,-1.7385225,-0.98837996,-0.3652974
1757748688854,9.7084875,-9.579201,1.5945383,-1.4636332,-0.97494096,-0.44959682
1757748688872,9.241618,-8.465898,0.4165911,-1.4636332,-0.97494096,-0.44959682
1757748688873,9.241618,-8.465898,0.4165911,-0.8063421,-0.8918633,-0.4007276
1757748688892,8.817844,-7.311892,0.39025488,-0.8063421,-0.8918633,-0.4007276
1757748688894,8.817844,-7.311892,0.39025488,-0.66828656,-0.77213365,-0.36041048
1757748688908,8.571242,-6.6415157,0.9744401,-0.66828656,-0.77213365,-0.36041048
1757748688910,8.571242,-6.6415157,0.9744401,-0.9993755,-0.6951646,-0.26145032
1757748688931,9.380483,-6.981492,1.4269443,-0.9993755,-0.6951646,-0.26145032
1757748688933,9.380483,-6.981492,1.4269443,-1.6749926,-0.73548174,-0.11728613
1757748688951,10.043676,-8.001422,1.1899183,-1.6749926,-0.73548174,-0.11728613
1757748688952,10.043676,-8.001422,1.1899183,-2.221106,-0.79045963,0.029321533
1757748688973,9.619903,-8.336611,0.50038815,-2.221106,-0.79045963,0.029321533
1757748688976,9.619903,-8.336611,0.50038815,-2.4055874,-0.7855727,0.14905111
1757748688991,8.614338,-8.66701,-1.5059528,-2.4055874,-0.7855727,0.14905111
1757748688993,8.614338,-8.66701,-1.5059528,-2.1062634,-0.66706485,0.26145032
1757748689011,8.226477,-8.671799,-1.1180922,-2.1062634,-0.66706485,0.26145032
1757748689012,8.226477,-8.671799,-1.1180922,-1.2583824,-0.46303585,0.35063666
1757748689031,7.8625584,-9.301474,-0.11492168,-1.2583824,-0.46303585,0.35063666
1757748689033,7.8625584,-9.301474,-0.11492168,-0.97494096,-0.32620203,0.3567453
1757748689052,8.034941,-8.487445,0.5554548,-0.97494096,-0.32620203,0.3567453
1757748689054,8.034941,-8.487445,0.5554548,-0.4801401,-0.12950343,0.27000242
1757748689072,7.5800424,-7.6614456,0.60333884,-0.4801401,-0.12950343,0.27000242
1757748689073,7.5800424,-7.6614456,0.60333884,-0.3652974,0.002443461,0.061086524
1757748689093,6.5744777,-5.659893,1.5275006,-0.3652974,0.002443461,0.061086524
1757748689095,6.5744777,-5.659893,1.5275006,-0.24190263,0.19181168,-0.052534413
1757748689112,5.693412,-5.9878983,1.0007763,-0.24190263,0.19181168,-0.052534413
1757748689114,5.693412,-5.9878983,1.0007763,-0.5888741,0.23823744,-0.15760323
1757748689133,5.884948,-5.267244,1.2761095,-0.5888741,0.23823744,-0.15760323
1757748689135,5.884948,-5.267244,1.2761095,-0.39950588,0.29565877,-0.18448131
1757748689152,5.415684,-4.098873,1.3096284,-0.39950588,0.29565877,-0.18448131
1757748689154,5.415684,-4.098873,1.3096284,0.04886922,0.42760566,-0.103847094
1757748689173,5.159505,-3.1268275,0.79487497,0.04886922,0.42760566,-0.103847094
1757748689175,5.159505,-3.1268275,0.79487497,0.37873647,0.5729916,-0.028099801
1757748689192,5.351041,-2.2697031,0.32321724,0.37873647,0.5729916,-0.028099801
1757748689194,5.351041,-2.2697031,0.32321724,0.5338962,0.79045963,0.07819075
1757748689213,5.5042696,-2.0231004,-0.076614454,0.5338962,0.79045963,0.07819075
1757748689215,5.5042696,-2.0231004,-0.076614454,0.14538592,1.105666,0.1966986
1757748689232,5.853823,-2.56419,-0.59376204,0.14538592,1.105666,0.1966986
1757748689234,5.853823,-2.56419,-0.59376204,0.036651913,1.2962561,0.27977628
1757748689253,6.033388,-2.5067291,-0.47884035,0.036651913,1.2962561,0.27977628
1757748689254,6.033388,-2.5067291,-0.47884035,0.3323107,1.5088371,0.31398472
1757748689272,6.423643,-1.448492,-0.9600749,0.3323107,1.5088371,0.31398472
1757748689274,6.423643,-1.448492,-0.9600749,0.70371675,1.7030923,0.2761111
1757748689292,6.4380083,-2.9783869,-0.5746084,0.70371675,1.7030923,0.2761111
1757748689294,6.4380083,-2.9783869,-0.5746084,0.7489208,1.7922786,0.24190263
1757748689312,5.6215854,-3.1148565,0.8858546,0.7489208,1.7922786,0.24190263
1757748689313,5.6215854,-3.1148565,0.8858546,1.0005972,1.9376645,0.15271631
1757748689333,4.699818,-1.2761095,3.3854012,1.0005972,1.9376645,0.15271631
1757748689334,4.699818,-1.2761095,3.3854012,1.1398746,1.7959439,-0.1282817
1757748689352,4.709395,-2.243367,4.522647,1.1398746,1.7959439,-0.1282817
1757748689353,4.709395,-2.243367,4.522647,0.49968776,1.3255776,-0.38973203
1757748689373,5.33907,-4.086902,4.5178585,0.49968776,1.3255776,-0.38973203
1757748689375,5.33907,-4.086902,4.5178585,-0.38728857,0.77457714,-0.4972443
1757748689393,5.398925,-4.951209,3.58412,-0.38728857,0.77457714,-0.4972443
1757748689394,5.398925,-4.951209,3.58412,-0.5338962,0.55955255,-0.56199604
1757748689413,5.949591,-7.8769236,1.2473791,-0.5338962,0.55955255,-0.56199604
1757748689414,5.949591,-7.8769236,1.2473791,0.008552114,0.37140608,-0.51923543
1757748689432,6.244078,-7.7572136,0.8283938,0.008552114,0.37140608,-0.51923543
1757748689433,6.244078,-7.7572136,0.8283938,1.4123205,0.47891834,-0.43127087
1757748689452,5.741296,-5.2002063,2.123657,1.4123205,0.47891834,-0.43127087
1757748689454,5.741296,-5.2002063,2.123657,2.6145031,0.70371675,-0.36774087
1757748689473,5.2840033,-3.3183637,3.3159695,2.6145031,0.70371675,-0.36774087
1757748689477,5.2840033,-3.3183637,3.3159695,2.4727826,0.657291,-0.35430184
1757748689492,5.183447,-2.3319526,4.6950297,2.4727826,0.657291,-0.35430184
1757748689493,5.183447,-2.3319526,4.6950297,1.4905112,0.4251622,-0.20769419
1757748689511,5.647922,-2.4660277,4.7764325,1.4905112,0.4251622,-0.20769419
1757748689513,5.647922,-2.4660277,4.7764325,0.30176744,0.21746802,0.05009095
1757748689534,6.7588315,-5.195418,3.809175,0.30176744,0.21746802,0.05009095
1757748689535,6.7588315,-5.195418,3.809175,-0.07941248,0.14294247,0.32253686
1757748689552,7.7907324,-4.6902413,3.9384618,-0.07941248,0.14294247,0.32253686
1757748689554,7.7907324,-4.6902413,3.9384618,0.8564331,0.41172317,0.5375614
1757748689574,7.668628,-3.8618474,4.084508,0.8564331,0.41172317,0.5375614
1757748689575,7.668628,-3.8618474,4.084508,1.251052,0.44104472,0.59620446
1757748689593,7.419631,-4.865018,4.7046065,1.251052,0.44104472,0.59620446
1757748689594,7.419631,-4.865018,4.7046065,0.8454375,0.25045475,0.5888741
1757748689613,6.7612257,-7.0461354,4.4005427,0.8454375,0.25045475,0.5888741
1757748689615,6.7612257,-7.0461354,4.4005427,0.10751228,-0.059864793,0.4801401
1757748689633,6.256049,-7.9607205,3.7349546,0.10751228,-0.059864793,0.4801401
1757748689635,6.256049,-7.9607205,3.7349546,-0.3115413,-0.32986724,0.23701571
1757748689653,5.6766524,-7.9702973,3.857059,-0.3115413,-0.32986724,0.23701571
1757748689655,5.6766524,-7.9702973,3.857059,-0.2321288,-0.4569272,-0.02076942
1757748689673,5.674258,-7.275979,4.0581717,-0.2321288,-0.4569272,-0.02076942
1757748689676,5.674258,-7.275979,4.0581717,0.06719518,-0.4202753,-0.16371189
1757748689694,6.0956373,-6.519411,4.223372,0.06719518,-0.4202753,-0.16371189
1757748689695,6.0956373,-6.519411,4.223372,0.2602286,-0.27977628,-0.16371189
1757748689713,5.7604494,-6.600814,4.6375685,0.2602286,-0.27977628,-0.16371189
1757748689714,5.7604494,-6.600814,4.6375685,0.37140608,-0.17837265,-0.013439035
1757748689733,5.33907,-6.612785,4.7860093,0.37140608,-0.17837265,-0.013439035
1757748689734,5.33907,-6.612785,4.7860093,0.12950343,-0.25900686,0.09407325
1757748689753,5.00867,-7.589619,4.465186,0.12950343,-0.25900686,0.09407325
1757748689755,5.00867,-7.589619,4.465186,-0.30665436,-0.37751472,0.23823744
1757748689777,4.7644615,-8.626308,3.7373488,-0.30665436,-0.37751472,0.23823744
1757748689779,4.7644615,-8.626308,3.7373488,-0.6951646,-0.41538838,0.2932153
1757748689793,5.011064,-8.544906,3.169923,-0.6951646,-0.41538838,0.2932153
1757748689795,5.011064,-8.544906,3.169923,-0.68416905,-0.312763,0.28344148
1757748689814,5.020641,-7.843405,2.717419,-0.68416905,-0.312763,0.28344148
1757748689816,5.020641,-7.843405,2.717419,-0.37507126,-0.13194689,0.2565634
1757748689833,4.7381253,-6.670246,2.7581203,-0.37507126,-0.13194689,0.2565634
1757748689835,4.7381253,-6.670246,2.7581203,-0.07696902,0.118507855,0.26145032
1757748689854,4.7644615,-5.777209,2.7150247,-0.07696902,0.118507855,0.26145032
1757748689855,4.7644615,-5.777209,2.7150247,-0.052534413,0.33475417,0.2883284
1757748689873,4.9703627,-5.554548,2.9352913,-0.052534413,0.33475417,0.2883284
1757748689875,4.9703627,-5.554548,2.9352913,-0.23823744,0.47525316,0.30787608
1757748689893,5.5976434,-5.7389016,2.8443117,-0.23823744,0.47525316,0.30787608
1757748689895,5.5976434,-5.7389016,2.8443117,-0.42638394,0.51923543,0.2919936
1757748689913,6.033388,-5.734113,3.2824504,-0.42638394,0.51923543,0.2919936
1757748689915,6.033388,-5.734113,3.2824504,-0.49846604,0.42149702,0.21380283
1757748689934,6.564901,-5.5497594,3.845088,-0.49846604,0.42149702,0.21380283
1757748689936,6.564901,-5.5497594,3.845088,-0.5729916,0.28099802,0.14294247
1757748689953,7.00304,-5.9783216,3.9600096,-0.5729916,0.28099802,0.14294247
1757748689955,7.00304,-5.9783216,3.9600096,-0.80756384,0.12339478,0.059864793
1757748689974,6.847417,-6.5840545,4.213795,-0.80756384,0.12339478,0.059864793
1757748689977,6.847417,-6.5840545,4.213795,-0.90041536,0.015882496,-0.02321288
1757748689992,6.196194,-6.8689647,4.1132383,-0.90041536,0.015882496,-0.02321288
1757748689993,6.196194,-6.8689647,4.1132383,-0.8136725,-0.105068825,-0.119729586
1757748690011,5.657499,-6.5625067,3.5865142,-0.8136725,-0.105068825,-0.119729586
1757748690013,5.657499,-6.5625067,3.5865142,-0.45081854,-0.1881465,-0.18570304
1757748690032,5.2049947,-5.985504,3.0885203,-0.45081854,-0.1881465,-0.18570304
1757748690034,5.2049947,-5.985504,3.0885203,-0.16493362,-0.20647246,-0.22357668
1757748690054,5.0397944,-5.1906295,2.6024973,-0.16493362,-0.20647246,-0.22357668
1757748690055,5.0397944,-5.1906295,2.6024973,-0.16737708,-0.204029,-0.19792034
1757748690073,4.841076,-5.046977,2.3127987,-0.16737708,-0.204029,-0.19792034
1757748690074,4.841076,-5.046977,2.3127987,-0.35308012,-0.22724187,-0.19303341
1757748690093,4.546589,-4.960786,2.6024973,-0.35308012,-0.22724187,-0.19303341
1757748690095,4.546589,-4.960786,2.6024973,-0.4654793,-0.23701571,-0.18203785
1757748690114,4.4819455,-4.999093,3.107674,-0.4654793,-0.23701571,-0.18203785
1757748690115,4.4819455,-4.999093,3.107674,-0.41783184,-0.24801129,-0.14660765
1757748690134,4.378995,-5.08289,3.0334535,-0.41783184,-0.24801129,-0.14660765
1757748690136,4.378995,-5.08289,3.0334535,-0.35308012,-0.28588495,-0.14049901
1757748690153,4.213795,-4.7429137,2.7150247,-0.35308012,-0.28588495,-0.14049901
1757748690155,4.213795,-4.7429137,2.7150247,-0.31031954,-0.32375857,-0.14782938
1757748690175,4.1683054,-4.0916905,2.3104045,-0.31031954,-0.32375857,-0.14782938
1757748690176,4.1683054,-4.0916905,2.3104045,-0.33353242,-0.34330627,-0.15271631
1757748690193,4.132392,-3.6966474,1.982399,-0.33353242,-0.34330627,-0.15271631
1757748690195,4.132392,-3.6966474,1.982399,-0.39461896,-0.2919936,-0.14049901
1757748690214,4.0557775,-3.550601,1.9416976,-0.39461896,-0.2919936,-0.14049901
1757748690216,4.0557775,-3.550601,1.9416976,-0.3885103,-0.2003638,-0.118507855
1757748690234,3.7612908,-2.801216,1.934515,-0.3885103,-0.2003638,-0.118507855
1757748690235,3.7612908,-2.801216,1.934515,-0.18936823,-0.095294975,-0.04886922
1757748690254,3.8115692,-2.480393,1.4269443,-0.18936823,-0.095294975,-0.04886922
1757748690256,3.8115692,-2.480393,1.4269443,-0.103847094,-0.07086037,0.019547688
1757748690273,4.187459,-2.7222073,1.3096284,-0.103847094,-0.07086037,0.019547688
1757748690275,4.187459,-2.7222073,1.3096284,-0.1966986,-0.058643065,0.1001819
1757748690294,4.1132383,-3.799598,1.2066777,-0.1966986,-0.058643065,0.1001819
1757748690295,4.1132383,-3.799598,1.2066777,-0.33353242,-0.029321533,0.14172074
1757748690312,4.060566,-4.2066126,1.5825673,-0.33353242,-0.029321533,0.14172074
1757748690313,4.060566,-4.2066126,1.5825673,-0.09773844,0.042760566,0.15760323
1757748690335,3.9432502,-3.8522706,2.0350714,-0.09773844,0.042760566,0.15760323
1757748690336,3.9432502,-3.8522706,2.0350714,0.15760323,0.14905111,0.16982053
1757748690354,4.235343,-4.1706996,2.255338,0.15760323,0.14905111,0.16982053
1757748690355,4.235343,-4.1706996,2.255338,0.22113322,0.23335053,0.19914207
1757748690375,4.663905,-4.4484267,2.3702598,0.22113322,0.23335053,0.19914207
1757748690376,4.663905,-4.4484267,2.3702598,0.22968534,0.25900686,0.24556783
1757748690394,4.936844,-5.303157,2.0949266,0.22968534,0.25900686,0.24556783
1757748690395,4.936844,-5.303157,2.0949266,0.17959438,0.16737708,0.23579398
1757748690415,5.4180784,-5.5760956,2.2577322,0.17959438,0.16737708,0.23579398
1757748690416,5.4180784,-5.5760956,2.2577322,0.28955013,0.18325958,0.24678956
1757748690434,5.829881,-6.241684,3.2632968,0.28955013,0.18325958,0.24678956
1757748690435,5.829881,-6.241684,3.2632968,0.40439278,0.19181168,0.25778514
1757748690455,6.3949127,-6.7923503,3.58412,0.40439278,0.19181168,0.25778514
1757748690456,6.3949127,-6.7923503,3.58412,0.36163223,0.10629055,0.22724187
1757748690475,6.811504,-7.4483614,3.3039982,0.36163223,0.10629055,0.22724187
1757748690477,6.811504,-7.4483614,3.3039982,0.14905111,-0.0036651916,0.21013765
1757748690493,6.7612257,-7.503428,2.7629087,0.14905111,-0.0036651916,0.21013765
1757748690494,6.7612257,-7.503428,2.7629087,-0.16126843,-0.08674286,0.18570304
1757748690514,7.026982,-7.6590514,2.566584,-0.16126843,-0.08674286,0.18570304
1757748690515,7.026982,-7.6590514,2.566584,-0.3811799,-0.09773844,0.13316862
1757748690535,7.855376,-7.953538,3.1244333,-0.3811799,-0.09773844,0.13316862
1757748690536,7.855376,-7.953538,3.1244333,-0.13439035,-0.12705997,0.14049901
1757748690553,7.8888946,-8.046912,3.7181952,-0.13439035,-0.12705997,0.14049901
1757748690555,7.8888946,-8.046912,3.7181952,0.18570304,-0.1685988,0.14538592
1757748690574,7.577648,-8.508993,3.157952,0.18570304,-0.1685988,0.14538592
1757748690576,7.577648,-8.508993,3.157952,0.015882496,-0.27122417,0.14049901
1757748690593,7.7787614,-9.059659,2.6240451,0.015882496,-0.27122417,0.14049901
1757748690594,7.7787614,-9.059659,2.6240451,-0.2284636,-0.24312437,0.13316862
1757748690614,8.453926,-10.115502,2.753332,-0.2284636,-0.24312437,0.13316862
1757748690615,8.453926,-10.115502,2.753332,-0.089186326,-0.20280726,0.096516706
1757748690633,8.243237,-9.787497,3.8905778,-0.089186326,-0.20280726,0.096516706
1757748690635,8.243237,-9.787497,3.8905778,0.2602286,-0.15393804,0.014660766
1757748690654,8.1163435,-9.212888,4.036624,0.2602286,-0.15393804,0.014660766
1757748690656,8.1163435,-9.212888,4.036624,0.11362094,-0.17715092,-0.06841691
1757748690673,8.99741,-9.385271,3.86903,0.11362094,-0.17715092,-0.06841691
1757748690675,8.99741,-9.385271,3.86903,-0.30665436,-0.12705997,-0.061086524
1757748690694,9.385271,-10.029311,4.074931,-0.30665436,-0.12705997,-0.061086524
1757748690695,9.385271,-10.029311,4.074931,-0.50701815,-0.015882496,0.032986723
1757748690713,9.124303,-11.262324,4.462792,-0.50701815,-0.015882496,0.032986723
1757748690715,9.124303,-11.262324,4.462792,-0.3371976,0.021991149,0.035430185
1757748690734,9.651027,-11.477803,5.1642933,-0.3371976,0.021991149,0.035430185
1757748690736,9.651027,-11.477803,5.1642933,0.34208453,0.021991149,0.015882496
1757748690753,10.16578,-12.038046,4.757279,0.34208453,0.021991149,0.015882496
1757748690755,10.16578,-12.038046,4.757279,0.1685988,0.030543262,-0.06719518
1757748690774,10.78109,-12.720393,4.5561657,0.1685988,0.030543262,-0.06719518
1757748690776,10.78109,-12.720393,4.5561657,0.018325957,-0.002443461,-0.080634214
1757748690793,10.81461,-12.706028,4.225766,0.018325957,-0.002443461,-0.080634214
1757748690795,10.81461,-12.706028,4.225766,0.09162979,-0.04886922,-0.12583824
1757748690814,11.015722,-12.313379,4.4005427,0.09162979,-0.04886922,-0.12583824
1757748690816,11.015722,-12.313379,4.4005427,0.2321288,-0.13439035,-0.1282817
1757748690833,11.736377,-12.10269,4.453215,0.2321288,-0.13439035,-0.1282817
1757748690835,11.736377,-12.10269,4.453215,0.29565877,-0.20891592,-0.11484267
1757748690854,12.054806,-11.216835,4.4340615,0.29565877,-0.20891592,-0.11484267
1757748690856,12.054806,-11.216835,4.4340615,0.18448131,-0.27122417,-0.103847094
1757748690874,11.96622,-11.535264,3.9480386,0.18448131,-0.27122417,-0.103847094
1757748690875,11.96622,-11.535264,3.9480386,-0.043982297,-0.37018433,-0.10629055
1757748690895,12.11466,-11.066,3.5529952,-0.043982297,-0.37018433,-0.10629055
1757748690896,12.11466,-11.066,3.5529952,-0.0012217305,-0.39095375,-0.118507855
1757748690913,11.506534,-10.522516,3.7732618,-0.0012217305,-0.39095375,-0.118507855
1757748690915,11.506534,-10.522516,3.7732618,-0.1001819,-0.17715092,-0.11728613
1757748690934,10.323798,-10.024523,4.378995,-0.1001819,-0.17715092,-0.11728613
1757748690936,10.323798,-10.024523,4.378995,-0.2125811,0.018325957,-0.105068825
1757748690954,9.275137,-9.864111,4.7764325,-0.2125811,0.018325957,-0.105068825
1757748690955,9.275137,-9.864111,4.7764325,-0.27000242,0.12339478,-0.06841691
1757748690976,8.889671,-9.627085,4.948815,-0.27000242,0.12339478,-0.06841691
1757748690977,8.889671,-9.627085,4.948815,-0.032986723,0.13927728,-0.013439035
1757748690993,8.623915,-9.179369,4.4915223,-0.032986723,0.13927728,-0.013439035
1757748690995,8.623915,-9.179369,4.4915223,0.30543262,0.119729586,0.0061086523
1757748691014,8.628703,-9.267955,3.4476504,0.30543262,0.119729586,0.0061086523
1757748691015,8.628703,-9.267955,3.4476504,0.376293,0.10140363,0.0012217305
1757748691034,8.396465,-8.932767,2.6001031,0.376293,0.10140363,0.0012217305
1757748691036,8.396465,-8.932767,2.6001031,0.3726278,0.12095132,0.009773844
1757748691055,8.111555,-8.78672,2.1978772,0.3726278,0.12095132,0.009773844
1757748691056,8.111555,-8.78672,2.1978772,0.25045475,0.10751228,0.002443461
1757748691075,7.505822,-8.173804,1.9512744,0.25045475,0.10751228,0.002443461
1757748691076,7.505822,-8.173804,1.9512744,0.06719518,0.061086524,-0.0036651916
1757748691095,7.524976,-8.054094,1.7908629,0.06719518,0.061086524,-0.0036651916
1757748691096,7.524976,-8.054094,1.7908629,-0.19058995,0.081855945,0.010995574
1757748691115,7.7069354,-8.580819,2.2337902,-0.19058995,0.081855945,0.010995574
1757748691116,7.7069354,-8.580819,2.2337902,-0.15515977,0.09040806,0.036651913
1757748691135,7.1849995,-8.532935,2.7389667,-0.15515977,0.09040806,0.036651913
1757748691136,7.1849995,-8.532935,2.7389667,0.21746802,0.09896017,0.039095376
1757748691155,7.103596,-8.271967,3.0454245,0.21746802,0.09896017,0.039095376
1757748691156,7.103596,-8.271967,3.0454245,0.27977628,0.012217305,-0.008552114
1757748691176,7.505822,-7.943961,2.9951463,0.27977628,0.012217305,-0.008552114
1757748691177,7.505822,-7.943961,2.9951463,0.21135938,-0.081855945,-0.07086037
1757748691195,7.4962454,-7.9367785,2.858677,0.21135938,-0.081855945,-0.07086037
1757748691196,7.4962454,-7.9367785,2.858677,0.17837265,-0.096516706,-0.09896017
1757748691215,7.6590514,-7.2592196,2.789245,0.17837265,-0.096516706,-0.09896017
1757748691216,7.6590514,-7.2592196,2.789245,0.23823744,-0.039095376,-0.09285152
1757748691234,6.859388,-6.9599442,2.7150247,0.23823744,-0.039095376,-0.09285152
1757748691236,6.859388,-6.9599442,2.7150247,0.31764993,0.052534413,-0.089186326
1757748691255,6.2392898,-5.6215854,2.791639,0.31764993,0.052534413,-0.089186326
1757748691256,6.2392898,-5.6215854,2.791639,0.34330627,0.1160644,-0.103847094
1757748691277,5.619191,-5.118803,2.9017725,0.34330627,0.1160644,-0.103847094
1757748691279,5.619191,-5.118803,2.9017725,0.24923302,0.21135938,-0.06719518
1757748691297,4.996699,-5.0278234,2.9352913,0.24923302,0.21135938,-0.06719518
1757748691298,4.996699,-5.0278234,2.9352913,0.10995574,0.28344148,-0.02443461
1757748691315,4.4005427,-5.070919,2.3391352,0.10995574,0.28344148,-0.02443461
1757748691317,4.4005427,-5.070919,2.3391352,0.06352998,0.32742378,-0.0036651916
1757748691335,3.9600096,-4.5992613,1.7669208,0.06352998,0.32742378,-0.0036651916
1757748691336,3.9600096,-4.5992613,1.7669208,0.2773328,0.37140608,0.007330383
1757748691354,3.5122938,-3.5769374,1.3958195,0.2773328,0.37140608,0.007330383
1757748691356,3.5122938,-3.5769374,1.3958195,0.5021312,0.44348818,0.004886922
1757748691377,3.1364043,-2.5067291,1.0773908,0.5021312,0.44348818,0.004886922
1757748691378,3.1364043,-2.5067291,1.0773908,0.453262,0.49480084,-0.004886922
1757748691395,3.2632968,-2.1212628,0.61530983,0.453262,0.49480084,-0.004886922
1757748691396,3.2632968,-2.1212628,0.61530983,0.28221974,0.48258355,-0.002443461
1757748691416,3.0310593,-1.2378023,-0.21787235,0.28221974,0.48258355,-0.002443461
1757748691417,3.0310593,-1.2378023,-0.21787235,0.11362094,0.46181414,0.017104227
1757748691435,2.8083985,-0.581791,-0.08379706,0.11362094,0.46181414,0.017104227
1757748691436,2.8083985,-0.581791,-0.08379706,-0.15149458,0.47403142,0.052534413
1757748691456,3.1148565,-1.1468226,0.6943185,-0.15149458,0.47403142,0.052534413
1757748691457,3.1148565,-1.1468226,0.6943185,-0.6389651,0.55955255,0.172264
1757748691476,3.3901896,-2.4947581,1.8219875,-0.6389651,0.55955255,0.172264
1757748691477,3.3901896,-2.4947581,1.8219875,-0.8576548,0.6072,0.27000242
1757748691495,3.1794999,-3.7612908,2.0901382,-0.8576548,0.6072,0.27000242
1757748691496,3.1794999,-3.7612908,2.0901382,-0.22113322,0.68783426,0.30176744
1757748691514,3.6391866,-3.0430303,2.707842,-0.22113322,0.68783426,0.30176744
1757748691516,3.6391866,-3.0430303,2.707842,0.6780604,0.77213365,0.2883284
1757748691535,4.1012673,-2.9735985,3.5865142,0.6780604,0.77213365,0.2883284
1757748691536,4.1012673,-2.9735985,3.5865142,0.88453287,0.7476991,0.33353242
1757748691555,4.307169,-3.58412,3.9480386,0.88453287,0.7476991,0.33353242
1757748691556,4.307169,-3.58412,3.9480386,0.68539083,0.6414085,0.32375857
1757748691576,4.5801077,-4.175488,4.4077253,0.68539083,0.6414085,0.32375857
1757748691578,4.5801077,-4.175488,4.4077253,0.46303585,0.38728857,0.3005457
1757748691595,5.1235914,-5.2648497,5.602432,0.46303585,0.38728857,0.3005457
1757748691596,5.1235914,-5.2648497,5.602432,0.25900686,0.13561209,0.24923302
1757748691616,5.48751,-6.069301,6.2704144,0.25900686,0.13561209,0.24923302
1757748691617,5.48751,-6.069301,6.2704144,0.11728613,-0.17348573,0.14294247
1757748691635,5.401319,-6.0980315,5.90889,0.11728613,-0.17348573,0.14294247
1757748691636,5.401319,-6.0980315,5.90889,-0.039095376,-0.44226643,-0.032986723
1757748691655,5.0493712,-6.2488666,5.3127337,-0.039095376,-0.44226643,-0.032986723
1757748691656,5.0493712,-6.2488666,5.3127337,-0.27855456,-0.55955255,-0.12583824
1757748691675,4.733337,-6.2368956,4.594473,-0.27855456,-0.55955255,-0.12583824
1757748691676,4.733337,-6.2368956,4.594473,-0.4373795,-0.47769663,-0.09773844
1757748691693,4.699818,-6.1507044,4.0462008,-0.4373795,-0.47769663,-0.09773844
1757748691695,4.699818,-6.1507044,4.0462008,-0.45081854,-0.26511553,0.02076942
1757748691715,4.9105077,-5.81791,3.9983168,-0.45081854,-0.26511553,0.02076942
1757748691717,4.9105077,-5.81791,3.9983168,-0.33964106,-0.037873644,0.12705997
1757748691735,4.9775453,-5.391742,4.4580035,-0.33964106,-0.037873644,0.12705997
1757748691736,4.9775453,-5.391742,4.4580035,-0.19547687,0.1282817,0.19303341
1757748691755,5.279215,-5.0637364,4.3119574,-0.19547687,0.1282817,0.19303341
1757748691757,5.279215,-5.0637364,4.3119574,-0.19547687,0.172264,0.1441642
1757748691777,5.058948,-4.687847,3.9552212,-0.19547687,0.172264,0.1441642
1757748691778,5.058948,-4.687847,3.9552212,-0.20280726,0.1282817,0.057421334
1757748691796,4.429273,-4.024653,3.7660792,-0.20280726,0.1282817,0.057421334
1757748691797,4.429273,-4.024653,3.7660792,-0.21746802,0.04886922,-0.040317107
1757748691816,3.9624038,-3.5673606,3.5936968,-0.21746802,0.04886922,-0.040317107
1757748691817,3.9624038,-3.5673606,3.5936968,-0.2321288,-0.087964594,-0.10873401
1757748691834,3.7014358,-3.4979286,3.098097,-0.2321288,-0.087964594,-0.10873401
1757748691836,3.7014358,-3.4979286,3.098097,-0.23945917,-0.20891592,-0.118507855
1757748691857,3.9001546,-3.478775,2.717419,-0.23945917,-0.20891592,-0.118507855
1757748691858,3.9001546,-3.478775,2.717419,-0.3481932,-0.30543262,-0.08307768
1757748691876,3.763685,-4.5034933,2.1428106,-0.3481932,-0.30543262,-0.08307768
1757748691877,3.763685,-4.5034933,2.1428106,-0.49357912,-0.40317106,-0.02687807
1757748691896,3.7924154,-4.9344497,1.5849615,-0.49357912,-0.40317106,-0.02687807
1757748691898,3.7924154,-4.9344497,1.5849615,-0.37140608,-0.47403142,-0.013439035
1757748691915,3.857059,-4.4556093,0.92655605,-0.37140608,-0.47403142,-0.013439035
1757748691917,3.857059,-4.4556093,0.92655605,-0.15515977,-0.38973203,-0.008552114
1757748691936,3.8953662,-3.739743,0.62728083,-0.15515977,-0.38973203,-0.008552114
1757748691938,3.8953662,-3.739743,0.62728083,-0.14172074,-0.2602286,0.03176499
1757748691955,3.8259344,-3.1531637,0.8475474,-0.14172074,-0.2602286,0.03176499
1757748691957,3.8259344,-3.1531637,0.8475474,-0.2284636,-0.14782938,0.07574729
1757748691977,4.0342298,-2.942474,1.1563994,-0.2284636,-0.14782938,0.07574729
1757748691978,4.0342298,-2.942474,1.1563994,-0.4801401,-0.16126843,0.103847094
1757748691996,3.9480386,-3.8379054,1.1779473,-0.4801401,-0.16126843,0.103847094
1757748691997,3.9480386,-3.8379054,1.1779473,-0.7110472,-0.14905111,0.1282817
1757748692016,3.9791632,-4.7884035,1.8243817,-0.7110472,-0.14905111,0.1282817
1757748692018,3.9791632,-4.7884035,1.8243817,-0.5644395,-0.03176499,0.16126843
1757748692036,3.940856,-4.8458643,2.6264393,-0.5644395,-0.03176499,0.16126843
1757748692037,3.940856,-4.8458643,2.6264393,-0.1966986,0.10262536,0.17959438
1757748692055,4.175488,-4.429273,2.9496565,-0.1966986,0.10262536,0.17959438
1757748692056,4.175488,-4.429273,2.9496565,-0.04642576,0.13072516,0.172264
1757748692075,4.687847,-4.6471453,2.9376855,-0.04642576,0.13072516,0.172264
1757748692077,4.687847,-4.6471453,2.9376855,-0.3115413,0.017104227,0.16737708
1757748692096,4.7022123,-6.0597243,3.0142999,-0.3115413,0.017104227,0.16737708
1757748692097,4.7022123,-6.0597243,3.0142999,-0.49235737,-0.009773844,0.12339478
1757748692115,4.984728,-6.05733,3.4500446,-0.49235737,-0.009773844,0.12339478
1757748692116,4.984728,-6.05733,3.4500446,-0.29077184,0.04886922,0.081855945
1757748692136,5.6335564,-6.3350577,3.8043866,-0.29077184,0.04886922,0.081855945
1757748692137,5.6335564,-6.3350577,3.8043866,-0.14538592,0.0061086523,0.012217305
1757748692156,6.0405707,-6.6870055,3.7852328,-0.14538592,0.0061086523,0.012217305
1757748692157,6.0405707,-6.6870055,3.7852328,-0.14905111,-0.04520403,-0.02443461
1757748692177,6.0022635,-7.240066,3.8522706,-0.14905111,-0.04520403,-0.02443461
1757748692178,6.0022635,-7.240066,3.8522706,-0.16126843,-0.03176499,-0.004886922
1757748692196,5.7269306,-7.656657,4.0677485,-0.16126843,-0.03176499,-0.004886922
1757748692197,5.7269306,-7.656657,4.0677485,-0.05497787,0.021991149,0.008552114
1757748692217,5.935226,-8.049306,4.132392,-0.05497787,0.021991149,0.008552114
1757748692218,5.935226,-8.049306,4.132392,0.021991149,-0.0061086523,0.028099801
1757748692235,6.706159,-9.093178,3.7708676,0.021991149,-0.0061086523,0.028099801
1757748692237,6.706159,-9.093178,3.7708676,-0.043982297,-0.06719518,-0.030543262
1757748692256,6.849811,-9.349358,3.6727054,-0.043982297,-0.06719518,-0.030543262
1757748692257,6.849811,-9.349358,3.6727054,-0.096516706,-0.056199603,-0.07574729
1757748692277,5.9759274,-9.753978,4.024653,-0.096516706,-0.056199603,-0.07574729
1757748692278,5.9759274,-9.753978,4.024653,-0.14172074,0.008552114,-0.06719518
1757748692294,6.31351,-10.043676,4.0557775,-0.14172074,0.008552114,-0.06719518
1757748692297,6.31351,-10.043676,4.0557775,0.010995574,-0.02443461,-0.012217305
1757748692315,7.3310456,-9.82341,4.0462008,0.010995574,-0.02443461,-0.012217305
1757748692317,7.3310456,-9.82341,4.0462008,0.2125811,-0.008552114,0.021991149
1757748692337,7.66384,-10.5919485,4.381389,0.2125811,-0.008552114,0.021991149
1757748692338,7.66384,-10.5919485,4.381389,0.06841691,0.087964594,0.040317107
1757748692355,7.515399,-12.198458,4.831499,0.06841691,0.087964594,0.040317107
1757748692357,7.515399,-12.198458,4.831499,-0.25411993,0.1441642,0.0720821
1757748692377,8.516175,-13.6254015,5.6359506,-0.25411993,0.1441642,0.0720821
1757748692378,8.516175,-13.6254015,5.6359506,-0.16493362,0.07819075,0.08307768
1757748692396,9.785102,-12.852075,5.7987566,-0.16493362,0.07819075,0.08307768
1757748692397,9.785102,-12.852075,5.7987566,0.26511553,-0.004886922,0.015882496
1757748692417,10.601525,-12.047623,5.3701944,0.26511553,-0.004886922,0.015882496
1757748692418,10.601525,-12.047623,5.3701944,0.48502702,0.002443461,-0.095294975
1757748692436,10.970232,-11.975797,5.4659624,0.48502702,0.002443461,-0.095294975
1757748692437,10.970232,-11.975797,5.4659624,0.22968534,0.13561209,-0.018325957
1757748692456,11.729194,-13.591883,5.849035,0.22968534,0.13561209,-0.018325957
1757748692458,11.729194,-13.591883,5.849035,-0.17959438,0.11484267,0.02565634
1757748692476,11.281479,-14.618996,5.7963624,-0.17959438,0.11484267,0.02565634
1757748692477,11.281479,-14.618996,5.7963624,-0.28344148,0.06963864,-0.05497787
1757748692496,10.91756,-13.759478,5.8801594,-0.28344148,0.06963864,-0.05497787
1757748692498,10.91756,-13.759478,5.8801594,0.103847094,0.029321533,-0.20158553
1757748692516,10.290278,-12.272678,5.523423,0.103847094,0.029321533,-0.20158553
1757748692517,10.290278,-12.272678,5.523423,0.34330627,0.07574729,-0.24312437
1757748692537,9.76116,-11.303026,5.523423,0.34330627,0.07574729,-0.24312437
1757748692538,9.76116,-11.303026,5.523423,0.2773328,0.09896017,-0.18081611
1757748692556,9.306262,-10.879252,5.3438582,0.2773328,0.09896017,-0.18081611
1757748692557,9.306262,-10.879252,5.3438582,0.19425514,0.12461651,-0.09896017
1757748692577,9.050082,-10.852917,5.171476,0.19425514,0.12461651,-0.09896017
1757748692579,9.050082,-10.852917,5.171476,0.09896017,0.16982053,-0.029321533
1757748692596,8.9279785,-11.168951,4.793192,0.09896017,0.16982053,-0.029321533
1757748692597,8.9279785,-11.168951,4.793192,0.1160644,0.2284636,-0.012217305
1757748692616,7.9511437,-9.902418,4.711789,0.1160644,0.2284636,-0.012217305
1757748692618,7.9511437,-9.902418,4.711789,0.25900686,0.33475417,-0.05009095
1757748692636,7.7213006,-9.14585,4.4699745,0.25900686,0.33475417,-0.05009095
1757748692637,7.7213006,-9.14585,4.4699745,0.14049901,0.3213151,-0.064751714
1757748692657,7.8050976,-9.212888,4.144363,0.14049901,0.3213151,-0.064751714
1757748692658,7.8050976,-9.212888,4.144363,0.032986723,0.26633725,-0.05009095
1757748692675,8.008605,-8.954314,3.7804444,0.032986723,0.26633725,-0.05009095
1757748692676,8.008605,-8.954314,3.7804444,0.010995574,0.24556783,-0.029321533
1757748692697,7.419631,-9.662998,3.3159695,0.010995574,0.24556783,-0.029321533
1757748692698,7.419631,-9.662998,3.3159695,0.03176499,0.28221974,0.012217305
1757748692716,6.5601125,-9.545682,4.036624,0.03176499,0.28221974,0.012217305
1757748692717,6.5601125,-9.545682,4.036624,0.18325958,0.3200934,0.013439035
1757748692737,6.277597,-9.050082,4.522647,0.18325958,0.3200934,0.013439035
1757748692738,6.277597,-9.050082,4.522647,0.14172074,0.27488935,0.0036651916
1757748692756,6.2249246,-9.129091,4.3718123,0.14172074,0.27488935,0.0036651916
1757748692757,6.2249246,-9.129091,4.3718123,0.05497787,0.18570304,0.010995574
1757748692776,6.2728086,-8.714894,3.892972,0.05497787,0.18570304,0.010995574
1757748692777,6.2728086,-8.714894,3.892972,0.22968534,0.18692477,0.06841691
1757748692796,6.2512608,-8.7125,3.9001546,0.22968534,0.18692477,0.06841691
1757748692797,6.2512608,-8.7125,3.9001546,0.32498032,0.22968534,0.14294247
1757748692817,6.4140663,-8.863335,4.1706996,0.32498032,0.22968534,0.14294247
1757748692820,6.4140663,-8.863335,4.1706996,0.38606682,0.22724187,0.16371189
1757748692836,6.26802,-8.293514,4.414908,0.38606682,0.22724187,0.16371189
1757748692837,6.26802,-8.293514,4.414908,0.41783184,0.21624629,0.11728613
1757748692857,6.0740895,-7.687782,4.249708,0.41783184,0.21624629,0.11728613
1757748692858,6.0740895,-7.687782,4.249708,0.39706242,0.24190263,0.09407325
1757748692877,5.973533,-6.7851677,4.309563,0.39706242,0.24190263,0.09407325
1757748692878,5.973533,-6.7851677,4.309563,0.4373795,0.312763,0.09407325
1757748692897,5.535394,-6.244078,4.3047748,0.4373795,0.312763,0.09407325
1757748692898,5.535394,-6.244078,4.3047748,0.39828414,0.36896262,0.12339478
1757748692916,5.391742,-6.0597243,4.2042184,0.39828414,0.36896262,0.12339478
1757748692917,5.391742,-6.0597243,4.2042184,0.36896262,0.35796702,0.12217305
1757748692936,4.8267107,-5.305551,4.0294414,0.36896262,0.35796702,0.12217305
1757748692937,4.8267107,-5.305551,4.0294414,0.49113566,0.36285394,0.09896017
1757748692955,3.9336734,-4.5178585,3.122039,0.49113566,0.36285394,0.09896017
1757748692957,3.9336734,-4.5178585,3.122039,0.5558874,0.36163223,0.043982297
1757748692976,3.4261026,-3.7900212,2.822764,0.5558874,0.36163223,0.043982297
1757748692977,3.4261026,-3.7900212,2.822764,0.68783426,0.3640757,0.007330383
1757748692996,2.96881,-3.2465374,2.3558946,0.68783426,0.3640757,0.007330383
1757748692998,2.96881,-3.2465374,2.3558946,0.6976081,0.31887165,-0.018325957
1757748693016,2.873042,-3.0262709,1.6711528,0.6976081,0.31887165,-0.018325957
1757748693018,2.873042,-3.0262709,1.6711528,0.57543504,0.23090707,-0.058643065
1757748693034,2.7461493,-2.7844565,1.1659763,0.57543504,0.23090707,-0.058643065
1757748693035,2.7461493,-2.7844565,1.1659763,0.41905355,0.19181168,-0.07696902
1757748693054,2.56419,-2.6647465,0.878672,0.41905355,0.19181168,-0.07696902
1757748693055,2.56419,-2.6647465,0.878672,0.28955013,0.20158553,-0.07452556
1757748693073,2.0638018,-2.3582888,0.7015011,0.28955013,0.20158553,-0.07452556
1757748693073,2.0638018,-2.3582888,0.7015011,0.32253686,0.29077184,-0.087964594
1757748693094,1.6256629,-1.4915876,1.5873557,0.32253686,0.29077184,-0.087964594
1757748693095,1.6256629,-1.4915876,1.5873557,0.4373795,0.47403142,-0.04886922
1757748693114,1.7357962,-1.7645266,1.946486,0.4373795,0.47403142,-0.04886922
1757748693114,1.7357962,-1.7645266,1.946486,0.42760566,0.64873886,0.10873401
1757748693135,2.3104045,-1.8579005,1.5275006,0.42760566,0.64873886,0.10873401
1757748693137,2.3104045,-1.8579005,1.5275006,0.63529986,0.7257079,0.21380283
1757748693156,2.5067291,-1.7645266,1.5801731,0.63529986,0.7257079,0.21380283
1757748693157,2.5067291,-1.7645266,1.5801731,0.80878556,0.81489426,0.3359759
1757748693177,2.9616275,-2.0470424,2.8682537,0.80878556,0.81489426,0.3359759
1757748693178,2.9616275,-2.0470424,2.8682537,0.66828656,0.8552113,0.41416663
1757748693196,3.217807,-2.9281087,4.8123455,0.66828656,0.8552113,0.41416663
1757748693197,3.217807,-2.9281087,4.8123455,0.28710666,0.75136423,0.4361578
1757748693216,3.430891,-4.4963107,6.253655,0.28710666,0.75136423,0.4361578
1757748693218,3.430891,-4.4963107,6.253655,-0.13683382,0.42149702,0.34574974
1757748693236,3.7301662,-6.1195793,7.132327,-0.13683382,0.42149702,0.34574974
1757748693237,3.7301662,-6.1195793,7.132327,-0.42638394,-0.03176499,0.15760323
1757748693256,4.331111,-6.7492547,7.714118,-0.42638394,-0.03176499,0.15760323
1757748693257,4.331111,-6.7492547,7.714118,-0.56688297,-0.4092797,-0.0036651916
1757748693276,4.900931,-6.9838862,7.3885064,-0.56688297,-0.4092797,-0.0036651916
1757748693278,4.900931,-6.9838862,7.3885064,-0.829555,-0.6560693,-0.17837265
1757748693297,5.092467,-6.3685765,6.576872,-0.829555,-0.6560693,-0.17837265
1757748693298,5.092467,-6.3685765,6.576872,-0.63041294,-0.5412266,-0.27366763
1757748693316,4.7189717,-5.580884,6.215348,-0.63041294,-0.5412266,-0.27366763
1757748693318,4.7189717,-5.580884,6.215348,-0.26389378,-0.21868975,-0.18448131
1757748693334,4.2760444,-5.243302,6.203377,-0.26389378,-0.21868975,-0.18448131
1757748693336,4.2760444,-5.243302,6.203377,-0.073303826,0.09773844,-0.032986723
1757748693354,4.1180267,-5.693412,6.160281,-0.073303826,0.09773844,-0.032986723
1757748693355,4.1180267,-5.693412,6.160281,-0.0061086523,0.26267207,0.09285152
1757748693375,4.247314,-5.631162,5.705383,-0.0061086523,0.26267207,0.09285152
1757748693376,4.247314,-5.631162,5.705383,0.112399206,0.3042109,0.09407325
1757748693393,3.9504328,-5.2026005,5.0493712,0.112399206,0.3042109,0.09407325
1757748693397,3.9504328,-5.2026005,5.0493712,0.14660765,0.24801129,-0.014660766
1757748693414,3.4500446,-4.4340615,4.8243165,0.14660765,0.24801129,-0.014660766
1757748693415,3.4500446,-4.4340615,4.8243165,0.030543262,0.13561209,-0.13072516
1757748693434,2.966416,-3.6008794,4.594473,0.030543262,0.13561209,-0.13072516
1757748693435,2.966416,-3.6008794,4.594473,-0.20891592,-0.018325957,-0.20891592
1757748693455,3.0023289,-3.3446999,4.235343,-0.20891592,-0.018325957,-0.20891592
1757748693456,3.0023289,-3.3446999,4.235343,-0.643852,-0.24190263,-0.18325958
1757748693474,2.8802247,-4.1635165,3.8905778,-0.643852,-0.24190263,-0.18325958
1757748693475,2.8802247,-4.1635165,3.8905778,-0.66339964,-0.3555236,-0.15760323
1757748693495,2.8538885,-4.2521024,3.5003228,-0.66339964,-0.3555236,-0.15760323
1757748693496,2.8538885,-4.2521024,3.5003228,-0.4972443,-0.44715336,-0.12461651
1757748693514,2.870648,-4.039018,2.7102363,-0.4972443,-0.44715336,-0.12461651
1757748693515,2.870648,-4.039018,2.7102363,-0.44593164,-0.48991394,-0.10629055
1757748693537,3.0765493,-3.7948096,2.3056161,-0.44593164,-0.48991394,-0.10629055
1757748693538,3.0765493,-3.7948096,2.3056161,-0.48747048,-0.45204028,-0.058643065
1757748693554,3.1962593,-3.8857894,2.2409728,-0.48747048,-0.45204028,-0.058643065
1757748693555,3.1962593,-3.8857894,2.2409728,-0.47403142,-0.38728857,-0.0036651916
1757748693575,3.2609026,-3.7900212,2.3798366,-0.47403142,-0.38728857,-0.0036651916
1757748693576,3.2609026,-3.7900212,2.3798366,-0.32742378,-0.3481932,0.04153884
1757748693596,3.241749,-3.7852328,2.0326772,-0.32742378,-0.3481932,0.04153884
1757748693597,3.241749,-3.7852328,2.0326772,-0.27977628,-0.3359759,0.073303826
1757748693616,3.4572272,-4.048595,1.8531121,-0.27977628,-0.3359759,0.073303826
1757748693616,3.4572272,-4.048595,1.8531121,-0.3323107,-0.28588495,0.09285152
1757748693636,3.2489316,-4.3382936,3.0142999,-0.3323107,-0.28588495,0.09285152
1757748693637,3.2489316,-4.3382936,3.0142999,-0.18325958,-0.06963864,0.11484267
1757748693657,3.4045548,-4.2425256,3.4596214,-0.18325958,-0.06963864,0.11484267
1757748693658,3.4045548,-4.2425256,3.4596214,-0.13194689,-0.04520403,0.10873401
1757748693677,3.5745432,-4.3837833,3.3901896,-0.13194689,-0.04520403,0.10873401
1757748693679,3.5745432,-4.3837833,3.3901896,-0.17592919,-0.12583824,0.07086037
1757748693697,4.003105,-4.8386817,3.3087866,-0.17592919,-0.12583824,0.07086037
1757748693699,4.003105,-4.8386817,3.3087866,-0.3286455,-0.20525073,0.064751714
1757748693716,4.1611223,-5.995081,3.5529952,-0.3286455,-0.20525073,0.064751714
1757748693717,4.1611223,-5.995081,3.5529952,-0.4166101,-0.21013765,0.052534413
1757748693737,4.096479,-6.215348,4.3718123,-0.4166101,-0.21013765,0.052534413
1757748693739,4.096479,-6.215348,4.3718123,-0.26389378,-0.17959438,0.036651913
1757748693756,4.1419687,-5.7365074,4.7165775,-0.26389378,-0.17959438,0.036651913
1757748693758,4.1419687,-5.7365074,4.7165775,-0.118507855,-0.19547687,0.019547688
1757748693780,4.5992613,-6.172252,4.486734,-0.118507855,-0.19547687,0.019547688
1757748693782,4.5992613,-6.172252,4.486734,-0.16982053,-0.2932153,0.012217305
1757748693797,5.1523223,-6.3302693,4.429273,-0.16982053,-0.2932153,0.012217305
1757748693799,5.1523223,-6.3302693,4.429273,-0.18936823,-0.3359759,0.021991149
1757748693817,5.4899044,-7.6015906,4.3981485,-0.18936823,-0.3359759,0.021991149
1757748693818,5.4899044,-7.6015906,4.3981485,-0.22357668,-0.312763,0.014660766
1757748693837,5.3725886,-7.668628,4.6112323,-0.22357668,-0.312763,0.014660766
1757748693838,5.3725886,-7.668628,4.6112323,-0.13561209,-0.26145032,-0.02687807
1757748693857,5.3845596,-7.4028716,4.8386817,-0.13561209,-0.26145032,-0.02687807
1757748693860,5.3845596,-7.4028716,4.8386817,-0.17104226,-0.24923302,-0.06841691
1757748693877,5.695806,-8.209718,4.630386,-0.17104226,-0.24923302,-0.06841691
1757748693879,5.695806,-8.209718,4.630386,-0.30787608,-0.25778514,-0.05375614
1757748693897,5.758055,-8.834604,5.1379566,-0.30787608,-0.25778514,-0.05375614
1757748693899,5.758055,-8.834604,5.1379566,-0.26145032,-0.21135938,-0.013439035
1757748693916,5.6982,-9.837775,5.3438582,-0.26145032,-0.21135938,-0.013439035
1757748693917,5.6982,-9.837775,5.3438582,-0.18203785,-0.20769419,0.0061086523
1757748693937,6.564901,-9.911995,5.3127337,-0.18203785,-0.20769419,0.0061086523
1757748693939,6.564901,-9.911995,5.3127337,0.02443461,-0.25289822,-0.034208454
1757748693956,7.433996,-9.488221,5.0661306,0.02443461,-0.25289822,-0.034208454
1757748693958,7.433996,-9.488221,5.0661306,-0.0842994,-0.25045475,-0.06841691
1757748693976,7.6375036,-11.166556,5.693412,-0.0842994,-0.25045475,-0.06841691
1757748693977,7.6375036,-11.166556,5.693412,-0.5693264,-0.15027285,-0.02076942
1757748693997,7.16824,-11.664551,6.2129536,-0.5693264,-0.15027285,-0.02076942
1757748693998,7.16824,-11.664551,6.2129536,-0.4166101,-0.11728613,-0.014660766
1757748694016,8.025364,-12.363658,6.184223,-0.4166101,-0.11728613,-0.014660766
1757748694017,8.025364,-12.363658,6.184223,-0.1160644,-0.16371189,-0.029321533
1757748694036,9.380483,-12.469003,5.9998693,-0.1160644,-0.16371189,-0.029321533
1757748694037,9.380483,-12.469003,5.9998693,0.06963864,-0.22602014,-0.07086037
1757748694056,9.414001,-12.423512,5.6431336,0.06963864,-0.22602014,-0.07086037
1757748694058,9.414001,-12.423512,5.6431336,-0.017104227,-0.22479841,-0.09285152
1757748694077,9.325416,-12.310986,5.7365074,-0.017104227,-0.22479841,-0.09285152
1757748694079,9.325416,-12.310986,5.7365074,-0.16249016,-0.22235495,-0.087964594
1757748694097,10.18254,-12.495338,5.9639564,-0.16249016,-0.22235495,-0.087964594
1757748694099,10.18254,-12.495338,5.9639564,-0.204029,-0.28221974,-0.06963864
1757748694116,10.874464,-12.059594,5.777209,-0.204029,-0.28221974,-0.06963864
1757748694118,10.874464,-12.059594,5.777209,-0.13683382,-0.312763,-0.13316862
1757748694137,10.733206,-11.489774,6.0166287,-0.13683382,-0.312763,-0.13316862
1757748694138,10.733206,-11.489774,6.0166287,-0.26389378,-0.20280726,-0.17104226
1757748694157,10.192117,-12.337321,6.64391,-0.26389378,-0.20280726,-0.17104226
1757748694158,10.192117,-12.337321,6.64391,-0.35796702,0.030543262,-0.13805555
1757748694178,9.861717,-12.152967,6.7971387,-0.35796702,0.030543262,-0.13805555
1757748694179,9.861717,-12.152967,6.7971387,0.029321533,0.13927728,-0.14660765
1757748694197,9.346964,-11.473015,6.2249246,0.029321533,0.13927728,-0.14660765
1757748694199,9.346964,-11.473015,6.2249246,0.24678956,0.17592919,-0.19425514
1757748694217,8.7292595,-10.455479,5.619191,0.24678956,0.17592919,-0.19425514
1757748694219,8.7292595,-10.455479,5.619191,0.25411993,0.23701571,-0.21991149
1757748694236,8.1163435,-9.821015,4.903325,0.25411993,0.23701571,-0.21991149
1757748694237,8.1163435,-9.821015,4.903325,0.22113322,0.33841935,-0.20769419
1757748694258,7.5800424,-9.502586,4.390966,0.22113322,0.33841935,-0.20769419
1757748694259,7.5800424,-9.502586,4.390966,0.19914207,0.41538838,-0.16249016
1757748694277,7.383718,-9.308656,4.3382936,0.19914207,0.41538838,-0.16249016
1757748694279,7.383718,-9.308656,4.3382936,0.36285394,0.41416663,-0.13927728
1757748694300,7.098808,-8.872911,4.235343,0.36285394,0.41416663,-0.13927728
1757748694301,7.098808,-8.872911,4.235343,0.49113566,0.38973203,-0.12950343
1757748694316,6.8043213,-8.698134,3.763685,0.49113566,0.38973203,-0.12950343
1757748694317,6.8043213,-8.698134,3.763685,0.36774087,0.3286455,-0.09896017
1757748694337,6.8282633,-8.513782,3.7541082,0.36774087,0.3286455,-0.09896017
1757748694338,6.8282633,-8.513782,3.7541082,0.18203785,0.28588495,-0.059864793
1757748694357,6.55293,-8.810662,3.8618474,0.18203785,0.28588495,-0.059864793
1757748694359,6.55293,-8.810662,3.8618474,-0.047647487,0.2003638,-0.037873644
1757748694378,6.279991,-8.51857,3.9791632,-0.047647487,0.2003638,-0.037873644
1757748694380,6.279991,-8.51857,3.9791632,-0.16126843,0.12461651,-0.0061086523
1757748694397,6.021417,-9.64145,3.5769374,-0.16126843,0.12461651,-0.0061086523
1757748694399,6.021417,-9.64145,3.5769374,-0.29565877,0.07086037,0.030543262
1757748694418,6.265626,-9.837775,4.189853,-0.29565877,0.07086037,0.030543262
1757748694419,6.265626,-9.837775,4.189853,0.05375614,0.07819075,0.05131268
1757748694437,5.93762,-8.801085,4.429273,0.05375614,0.07819075,0.05131268
1757748694438,5.93762,-8.801085,4.429273,0.28955013,0.08552113,0.04642576
1757748694457,6.469133,-8.173804,4.343082,0.28955013,0.08552113,0.04642576
1757748694459,6.469133,-8.173804,4.343082,0.21991149,0.03176499,0.02565634
1757748694475,6.7827735,-7.726089,4.31914,0.21991149,0.03176499,0.02565634
1757748694476,6.7827735,-7.726089,4.31914,0.16126843,0.058643065,0.030543262
1757748694498,6.9120603,-7.687782,4.582502,0.16126843,0.058643065,0.030543262
1757748694499,6.9120603,-7.687782,4.582502,0.13683382,0.10751228,0.058643065
1757748694517,6.495469,-7.6829934,4.5681367,0.13683382,0.10751228,0.058643065
1757748694519,6.495469,-7.6829934,4.5681367,0.20769419,0.17104226,0.0842994
1757748694538,6.0525417,-7.6231384,4.4939165,0.20769419,0.17104226,0.0842994
1757748694540,6.0525417,-7.6231384,4.4939165,0.41905355,0.21746802,0.07574729
1757748694558,5.7269306,-6.8809357,4.3885717,0.41905355,0.21746802,0.07574729
1757748694559,5.7269306,-6.8809357,4.3885717,0.6218608,0.28221974,0.058643065
1757748694578,5.329493,-6.0956373,3.763685,0.6218608,0.28221974,0.058643065
1757748694580,5.329493,-6.0956373,3.763685,0.6743952,0.3286455,0.05375614
1757748694597,5.023035,-5.3199162,3.4093432,0.6743952,0.3286455,0.05375614
1757748694599,5.023035,-5.3199162,3.4093432,0.6365216,0.38362336,0.062308256
1757748694618,4.831499,-5.044583,3.2321723,0.6365216,0.38362336,0.062308256
1757748694619,4.831499,-5.044583,3.2321723,0.5045747,0.4288274,0.0842994
1757748694637,4.3167458,-4.656722,3.2465374,0.5045747,0.4288274,0.0842994
1757748694639,4.3167458,-4.656722,3.2465374,0.39584067,0.4569272,0.10262536
1757748694656,3.3159695,-4.292804,2.9831753,0.39584067,0.4569272,0.10262536
1757748694657,3.3159695,-4.292804,2.9831753,0.3885103,0.40561453,0.08674286
1757748694677,2.813187,-3.3901896,2.7030537,0.3885103,0.40561453,0.08674286
1757748694679,2.813187,-3.3901896,2.7030537,0.48258355,0.34574974,0.04886922
1757748694698,2.6360161,-2.719813,2.2720973,0.48258355,0.34574974,0.04886922
1757748694699,2.6360161,-2.719813,2.2720973,0.50579643,0.28099802,0.034208454
1757748694717,2.3247697,-2.4109612,1.5155296,0.50579643,0.28099802,0.034208454
1757748694719,2.3247697,-2.4109612,1.5155296,0.44226643,0.2284636,0.015882496
1757748694738,1.9201498,-1.8291701,0.9768343,0.44226643,0.2284636,0.015882496
1757748694740,1.9201498,-1.8291701,0.9768343,0.4251622,0.26145032,0.02565634
1757748694757,1.6328455,-1.42455,0.9911995,0.4251622,0.26145032,0.02565634
1757748694759,1.6328455,-1.42455,0.9911995,0.37384954,0.33964106,0.07819075
1757748694778,1.4556746,-1.3215994,1.271321,0.37384954,0.33964106,0.07819075
1757748694780,1.4556746,-1.3215994,1.271321,0.31887165,0.39584067,0.13927728
1757748694797,1.5849615,-1.2210429,1.5969325,0.31887165,0.39584067,0.13927728
1757748694799,1.5849615,-1.2210429,1.5969325,0.2883284,0.4642576,0.20647246
1757748694818,2.1092918,-1.9369092,2.360683,0.2883284,0.4642576,0.20647246
1757748694819,2.1092918,-1.9369092,2.360683,0.21135938,0.46181414,0.30176744
1757748694837,2.7246015,-3.2130187,3.6296098,0.21135938,0.46181414,0.30176744
1757748694839,2.7246015,-3.2130187,3.6296098,0.13927728,0.3408628,0.3567453
1757748694858,3.016694,-3.7924154,4.699818,0.13927728,0.3408628,0.3567453
1757748694859,3.016694,-3.7924154,4.699818,0.09896017,0.2443461,0.3359759
1757748694876,3.6296098,-5.032612,5.90889,0.09896017,0.2443461,0.3359759
1757748694878,3.6296098,-5.032612,5.90889,-0.05497787,0.14172074,0.3115413
1757748694897,3.9935284,-6.315904,6.8665705,-0.05497787,0.14172074,0.3115413
1757748694899,3.9935284,-6.315904,6.8665705,-0.16493362,-0.052534413,0.21746802
1757748694918,4.297592,-6.7971387,7.091625,-0.16493362,-0.052534413,0.21746802
1757748694921,4.297592,-6.7971387,7.091625,-0.19425514,-0.33108896,0.058643065
1757748694938,4.5920787,-6.5960255,6.921637,-0.19425514,-0.33108896,0.058643065
1757748694940,4.5920787,-6.5960255,6.921637,-0.32620203,-0.5656612,-0.07452556
1757748694957,4.795586,-6.83784,6.4906807,-0.32620203,-0.5656612,-0.07452556
1757748694960,4.795586,-6.83784,6.4906807,-0.55833083,-0.6291912,-0.14905111
1757748694978,4.9703627,-6.3829417,6.2967505,-0.55833083,-0.6291912,-0.14905111
1757748694979,4.9703627,-6.3829417,6.2967505,-0.4605924,-0.5045747,-0.15882497
1757748694995,4.5394063,-5.707777,5.827487,-0.4605924,-0.5045747,-0.15882497
1757748694996,4.5394063,-5.707777,5.827487,-0.17592919,-0.1685988,-0.062308256
1757748695016,4.4364557,-5.729325,5.566519,-0.17592919,-0.1685988,-0.062308256
1757748695017,4.4364557,-5.729325,5.566519,-0.1282817,-0.0036651916,0.018325957
1757748695035,4.345476,-5.7005944,5.2385135,-0.1282817,-0.0036651916,0.018325957
1757748695036,4.345476,-5.7005944,5.2385135,-0.05131268,0.11728613,0.04520403
1757748695055,4.19943,-5.3366756,4.915296,-0.05131268,0.11728613,0.04520403
1757748695056,4.19943,-5.3366756,4.915296,-0.018325957,0.14172074,0.007330383
1757748695074,4.0318356,-4.7884035,4.6926355,-0.018325957,0.14172074,0.007330383
1757748695075,4.0318356,-4.7884035,4.6926355,-0.09773844,0.05375614,-0.06963864
1757748695096,3.9073372,-4.829105,4.1132383,-0.09773844,0.05375614,-0.06963864
1757748695097,3.9073372,-4.829105,4.1132383,-0.23579398,-0.111177474,-0.13561209
1757748695113,3.8259344,-4.489128,4.0797195,-0.23579398,-0.111177474,-0.13561209
1757748695113,3.8259344,-4.489128,4.0797195,-0.32498032,-0.22602014,-0.17104226
1757748695135,3.679888,-4.5322237,3.6727054,-0.32498032,-0.22602014,-0.17104226
1757748695136,3.679888,-4.5322237,3.6727054,-0.45814893,-0.3213151,-0.18081611
1757748695155,3.5362358,-4.6902413,3.1387985,-0.45814893,-0.3213151,-0.18081611
1757748695156,3.5362358,-4.6902413,3.1387985,-0.50335294,-0.3933972,-0.19547687
1757748695176,3.6511576,-4.3598413,2.597709,-0.50335294,-0.3933972,-0.19547687
1757748695177,3.6511576,-4.3598413,2.597709,-0.32375857,-0.41416663,-0.17104226
1757748695197,3.6224272,-4.27365,2.516306,-0.32375857,-0.41416663,-0.17104226
1757748695199,3.6224272,-4.27365,2.516306,-0.3213151,-0.36163223,-0.105068825
1757748695217,3.6846764,-4.414908,2.765303,-0.3213151,-0.36163223,-0.105068825
1757748695218,3.6846764,-4.414908,2.765303,-0.41905355,-0.31520647,-0.02687807
1757748695237,3.6343982,-4.8267107,2.873042,-0.41905355,-0.31520647,-0.02687807
1757748695238,3.6343982,-4.8267107,2.873042,-0.46914452,-0.32620203,-0.0012217305
1757748695257,3.5984852,-4.747702,3.1531637,-0.46914452,-0.32620203,-0.0012217305
1757748695258,3.5984852,-4.747702,3.1531637,-0.37873647,-0.32742378,-0.028099801
1757748695277,3.7588966,-4.8458643,3.2345665,-0.37873647,-0.32742378,-0.028099801
1757748695278,3.7588966,-4.8458643,3.2345665,-0.29932398,-0.27488935,-0.04642576
1757748695297,4.074931,-4.4580035,3.265691,-0.29932398,-0.27488935,-0.04642576
1757748695298,4.074931,-4.4580035,3.265691,-0.18692477,-0.172264,-0.04153884
1757748695316,4.027047,-4.3382936,3.086126,-0.18692477,-0.172264,-0.04153884
1757748695317,4.027047,-4.3382936,3.086126,-0.1282817,-0.09040806,-0.019547688
1757748695339,3.8163576,-4.333505,3.526659,-0.1282817,-0.09040806,-0.019547688
1757748695340,3.8163576,-4.333505,3.526659,-0.19058995,-0.043982297,0.04642576
1757748695357,4.134786,-5.3103395,3.9336734,-0.19058995,-0.043982297,0.04642576
1757748695358,4.134786,-5.3103395,3.9336734,-0.30298916,-0.07452556,0.061086524
1757748695379,4.343082,-6.0645127,4.096479,-0.30298916,-0.07452556,0.061086524
1757748695380,4.343082,-6.0645127,4.096479,-0.20280726,-0.081855945,0.02443461
1757748695398,4.5633483,-5.959168,3.9264908,-0.20280726,-0.081855945,0.02443461
1757748695399,4.5633483,-5.959168,3.9264908,-0.105068825,-0.11728613,-0.04642576
1757748695418,4.912902,-5.6431336,3.8379054,-0.105068825,-0.11728613,-0.04642576
1757748695420,4.912902,-5.6431336,3.8379054,-0.16126843,-0.16493362,-0.0842994
1757748695437,4.987122,-5.9184666,3.9504328,-0.16126843,-0.16493362,-0.0842994
1757748695438,4.987122,-5.9184666,3.9504328,-0.31764993,-0.19303341,-0.081855945
1757748695458,4.9105077,-6.2704144,4.0462008,-0.31764993,-0.19303341,-0.081855945
1757748695461,4.9105077,-6.2704144,4.0462008,-0.34697145,-0.19547687,-0.07086037
1757748695477,5.5138464,-6.7468605,3.9145198,-0.34697145,-0.19547687,-0.07086037
1757748695479,5.5138464,-6.7468605,3.9145198,-0.28099802,-0.2284636,-0.0720821
1757748695497,5.90889,-6.9024835,4.144363,-0.28099802,-0.2284636,-0.0720821
1757748695499,5.90889,-6.9024835,4.144363,-0.19058995,-0.26145032,-0.07574729
1757748695518,5.6096144,-7.1826053,4.146757,-0.19058995,-0.26145032,-0.07574729
1757748695520,5.6096144,-7.1826053,4.146757,-0.1600467,-0.2761111,-0.10873401
1757748695539,5.7269306,-7.201759,4.237737,-0.1600467,-0.2761111,-0.10873401
1757748695540,5.7269306,-7.201759,4.237737,-0.1160644,-0.28588495,-0.12339478
1757748695558,5.9160724,-7.2927384,4.1611223,-0.1160644,-0.28588495,-0.12339478
1757748695559,5.9160724,-7.2927384,4.1611223,-0.05375614,-0.29443705,-0.1441642
1757748695579,6.0525417,-7.4483614,4.24492,-0.05375614,-0.29443705,-0.1441642
1757748695580,6.0525417,-7.4483614,4.24492,-0.095294975,-0.2773328,-0.14049901
1757748695598,5.7963624,-7.8865004,4.4220905,-0.095294975,-0.2773328,-0.14049901
1757748695599,5.7963624,-7.8865004,4.4220905,-0.25534168,-0.20647246,-0.10751228
1757748695619,5.825093,-8.432379,4.745308,-0.25534168,-0.20647246,-0.10751228
1757748695620,5.825093,-8.432379,4.745308,-0.26511553,-0.15760323,-0.07086037
1757748695638,6.727707,-8.710106,4.570531,-0.26511553,-0.15760323,-0.07086037
1757748695640,6.727707,-8.710106,4.570531,-0.18936823,-0.13927728,-0.04520403
1757748695659,7.2089415,-8.918402,4.3239284,-0.18936823,-0.13927728,-0.04520403
1757748695660,7.2089415,-8.918402,4.3239284,-0.14049901,-0.118507855,-0.032986723
1757748695678,6.2584434,-9.363723,4.829105,-0.14049901,-0.118507855,-0.032986723
1757748695680,6.2584434,-9.363723,4.829105,-0.14905111,-0.042760566,-0.047647487
1757748695699,6.615179,-10.244789,5.023035,-0.14905111,-0.042760566,-0.047647487
1757748695700,6.615179,-10.244789,5.023035,-0.15271631,-0.09773844,-0.03176499
1757748695718,8.420407,-10.5680065,4.6591167,-0.15271631,-0.09773844,-0.03176499
1757748695719,8.420407,-10.5680065,4.6591167,-0.07452556,-0.19181168,-0.035430185
1757748695739,9.495404,-10.915166,4.546589,-0.07452556,-0.19181168,-0.035430185
1757748695740,9.495404,-10.915166,4.546589,-0.04886922,-0.23090707,-0.02565634
1757748695758,9.385271,-11.722012,4.8865657,-0.04886922,-0.23090707,-0.02565634
1757748695760,9.385271,-11.722012,4.8865657,-0.10751228,-0.22357668,0.017104227
1757748695779,9.818622,-13.050794,5.410896,-0.10751228,-0.22357668,0.017104227
1757748695780,9.818622,-13.050794,5.410896,-0.2443461,-0.25778514,0.043982297
1757748695798,10.754754,-13.759478,5.674258,-0.2443461,-0.25778514,0.043982297
1757748695799,10.754754,-13.759478,5.674258,-0.2883284,-0.28710666,0.02076942
1757748695819,11.267113,-12.899959,6.0716953,-0.2883284,-0.28710666,0.02076942
1757748695820,11.267113,-12.899959,6.0716953,-0.096516706,-0.25411993,-0.039095376
1757748695839,10.907983,-11.944673,6.0836663,-0.096516706,-0.25411993,-0.039095376
1757748695840,10.907983,-11.944673,6.0836663,0.014660766,-0.19058995,-0.047647487
1757748695859,10.213664,-11.57836,5.7005944,0.014660766,-0.19058995,-0.047647487
1757748695860,10.213664,-11.57836,5.7005944,-0.013439035,-0.08674286,0.008552114
1757748695879,10.101137,-11.803414,5.5138464,-0.013439035,-0.08674286,0.008552114
1757748695880,10.101137,-11.803414,5.5138464,-0.02076942,0.013439035,0.018325957
1757748695899,9.385271,-11.5951185,5.674258,-0.02076942,0.013439035,0.018325957
1757748695900,9.385271,-11.5951185,5.674258,0.029321533,0.09162979,-0.013439035
1757748695918,8.762778,-10.699687,5.511452,0.029321533,0.09162979,-0.013439035
1757748695920,8.762778,-10.699687,5.511452,0.1600467,0.10873401,-0.04520403
1757748695939,8.403648,-10.34774,4.8626237,0.1600467,0.10873401,-0.04520403
1757748695940,8.403648,-10.34774,4.8626237,0.2284636,0.09285152,-0.07574729
1757748695958,8.087613,-9.624691,4.1419687,0.2284636,0.09285152,-0.07574729
1757748695961,8.087613,-9.624691,4.1419687,0.3286455,0.11728613,-0.09162979
1757748695977,7.7189064,-8.760384,3.5529952,0.3286455,0.11728613,-0.09162979
1757748695979,7.7189064,-8.760384,3.5529952,0.35185838,0.16493362,-0.06841691
1757748695998,7.4028716,-8.508993,3.5075054,0.35185838,0.16493362,-0.06841691
1757748696000,7.4028716,-8.508993,3.5075054,0.19181168,0.18936823,-0.040317107
1757748696016,7.132327,-9.16261,3.3686419,0.19181168,0.18936823,-0.040317107
1757748696017,7.132327,-9.16261,3.3686419,0.07574729,0.17715092,-0.05375614
1757748696037,7.52737,-8.647857,3.5242648,0.07574729,0.17715092,-0.05375614
1757748696039,7.52737,-8.647857,3.5242648,0.13439035,0.18570304,-0.08307768
1757748696059,7.086837,-8.6095495,3.5075054,0.13439035,0.18570304,-0.08307768
1757748696060,7.086837,-8.6095495,3.5075054,0.081855945,0.19425514,-0.105068825
1757748696078,6.5241995,-8.540117,3.5529952,0.081855945,0.19425514,-0.105068825
1757748696080,6.5241995,-8.540117,3.5529952,0.073303826,0.21624629,-0.087964594
1757748696099,6.4164605,-8.798691,3.5745432,0.073303826,0.21624629,-0.087964594
1757748696100,6.4164605,-8.798691,3.5745432,0.11362094,0.21624629,-0.061086524
1757748696118,6.742072,-8.74123,3.70383,0.11362094,0.21624629,-0.061086524
1757748696119,6.742072,-8.74123,3.70383,0.12705997,0.19792034,-0.043982297
1757748696138,7.3310456,-8.468291,3.6966474,0.12705997,0.19792034,-0.043982297
1757748696139,7.3310456,-8.468291,3.6966474,0.06352998,0.17470746,-0.02443461
1757748696157,6.8162923,-8.659827,4.086902,0.06352998,0.17470746,-0.02443461
1757748696159,6.8162923,-8.659827,4.086902,-0.02321288,0.18692477,0.017104227
1757748696179,6.3182983,-8.870518,4.268862,-0.02321288,0.18692477,0.017104227
1757748696180,6.3182983,-8.870518,4.268862,0.058643065,0.17104226,0.05131268
1757748696198,6.421249,-8.429984,4.295198,0.058643065,0.17104226,0.05131268
1757748696199,6.421249,-8.429984,4.295198,0.39095375,0.18203785,0.087964594
1757748696219,6.4068837,-8.075643,4.333505,0.39095375,0.18203785,0.087964594
1757748696220,6.4068837,-8.075643,4.333505,0.4373795,0.23090707,0.096516706
1757748696238,6.4547677,-7.6470804,4.223372,0.4373795,0.23090707,0.096516706
1757748696240,6.4547677,-7.6470804,4.223372,0.4569272,0.29077184,0.1160644
1757748696259,6.217742,-7.0126166,4.0462008,0.4569272,0.29077184,0.1160644
1757748696260,6.217742,-7.0126166,4.0462008,0.5522222,0.3726278,0.13683382
1757748696279,5.9878983,-6.3661823,3.9959226,0.5522222,0.3726278,0.13683382
1757748696280,5.9878983,-6.3661823,3.9959226,0.66950834,0.42638394,0.13561209
1757748696299,5.913678,-5.559336,4.003105,0.66950834,0.42638394,0.13561209
1757748696300,5.913678,-5.559336,4.003105,0.70005155,0.44593164,0.11484267
1757748696318,5.5258174,-5.3103395,3.7852328,0.70005155,0.44593164,0.11484267
1757748696319,5.5258174,-5.3103395,3.7852328,0.60231316,0.4251622,0.1001819
1757748696339,4.9679685,-5.0781016,3.5649664,0.60231316,0.4251622,0.1001819
1757748696341,4.9679685,-5.0781016,3.5649664,0.54244834,0.43249258,0.096516706
1757748696359,4.220978,-5.118803,3.4715924,0.54244834,0.43249258,0.096516706
1757748696360,4.220978,-5.118803,3.4715924,0.52778757,0.43004912,0.07819075
1757748696379,3.5338416,-4.4556093,2.9281087,0.52778757,0.43004912,0.07819075
1757748696380,3.5338416,-4.4556093,2.9281087,0.50335294,0.36285394,0.0036651916
1757748696399,3.1675289,-3.7588966,2.8275523,0.50335294,0.36285394,0.0036651916
1757748696400,3.1675289,-3.7588966,2.8275523,0.51923543,0.33475417,-0.028099801
1757748696419,2.6120741,-3.1435869,2.7940333,0.51923543,0.33475417,-0.028099801
1757748696420,2.6120741,-3.1435869,2.7940333,0.48991394,0.34208453,-0.008552114
1757748696439,2.3463178,-3.1292217,2.5019407,0.48991394,0.34208453,-0.008552114
1757748696440,2.3463178,-3.1292217,2.5019407,0.43493605,0.3408628,0.034208454
1757748696459,2.1906946,-3.0238767,2.1787236,0.43493605,0.3408628,0.034208454
1757748696461,2.1906946,-3.0238767,2.1787236,0.535118,0.33475417,0.039095376
1757748696477,1.9967642,-2.336741,1.958457,0.535118,0.33475417,0.039095376
1757748696478,1.9967642,-2.336741,1.958457,0.75502944,0.3408628,0.036651913
1757748696499,1.9632454,-1.6089035,1.4389153,0.75502944,0.3408628,0.036651913
1757748696500,1.9632454,-1.6089035,1.4389153,0.8405506,0.32742378,0.034208454
1757748696518,2.018312,-1.0103531,1.1731589,0.8405506,0.32742378,0.034208454
1757748696520,2.018312,-1.0103531,1.1731589,0.70371675,0.32620203,0.047647487
1757748696539,2.2218192,-1.1348516,1.6591818,0.70371675,0.32620203,0.047647487
1757748696541,2.2218192,-1.1348516,1.6591818,0.25167647,0.3286455,0.1441642
1757748696559,2.4827871,-1.6400281,2.6384103,0.25167647,0.3286455,0.1441642
1757748696560,2.4827871,-1.6400281,2.6384103,0.0,0.35063666,0.21380283
1757748696579,3.071761,-2.8275523,4.39336,0.0,0.35063666,0.21380283
1757748696581,3.071761,-2.8275523,4.39336,-0.15027285,0.36896262,0.30787608
1757748696599,3.7708676,-4.27365,6.0166287,-0.15027285,0.36896262,0.30787608
1757748696600,3.7708676,-4.27365,6.0166287,-0.21746802,0.28955013,0.3323107
1757748696619,4.1012673,-5.4324436,6.8162923,-0.21746802,0.28955013,0.3323107
1757748696620,4.1012673,-5.4324436,6.8162923,-0.17959438,0.096516706,0.2565634
1757748696639,4.134786,-6.517017,6.933608,-0.17959438,0.096516706,0.2565634
1757748696640,4.134786,-6.517017,6.933608,-0.27122417,-0.14049901,0.11484267
1757748696659,4.644751,-7.3310456,7.1873937,-0.27122417,-0.14049901,0.11484267
1757748696661,4.644751,-7.3310456,7.1873937,-0.54244834,-0.37751472,-0.021991149
1757748696679,5.2504845,-7.9224133,7.2592196,-0.54244834,-0.37751472,-0.021991149
1757748696680,5.2504845,-7.9224133,7.2592196,-0.6976081,-0.49846604,-0.12583824
1757748696699,5.0278234,-7.4962454,7.192182,-0.6976081,-0.49846604,-0.12583824
1757748696701,5.0278234,-7.4962454,7.192182,-0.47525316,-0.4605924,-0.20280726
1757748696716,4.3981485,-6.105214,6.775591,-0.47525316,-0.4605924,-0.20280726
1757748696717,4.3981485,-6.105214,6.775591,-0.04642576,-0.26633725,-0.13561209
1757748696737,4.477157,-5.470751,6.2728086,-0.04642576,-0.26633725,-0.13561209
1757748696738,4.477157,-5.470751,6.2728086,0.13439035,-0.09773844,-0.042760566
1757748696755,4.7907977,-4.948815,5.825093,0.13439035,-0.09773844,-0.042760566
1757748696756,4.7907977,-4.948815,5.825093,0.19303341,0.03176499,0.058643065
1757748696777,4.805163,-4.6806645,5.5282116,0.19303341,0.03176499,0.058643065
1757748696778,4.805163,-4.6806645,5.5282116,0.096516706,0.08307768,0.096516706
1757748696795,4.5202527,-4.4244847,5.5258174,0.096516706,0.08307768,0.096516706
1757748696796,4.5202527,-4.4244847,5.5258174,-0.042760566,0.07696902,0.0720821
1757748696817,3.8762126,-4.3861775,5.1116204,-0.042760566,0.07696902,0.0720821
1757748696818,3.8762126,-4.3861775,5.1116204,-0.19547687,0.0012217305,0.017104227
1757748696835,3.5697548,-4.2305546,4.8267107,-0.19547687,0.0012217305,0.017104227
1757748696836,3.5697548,-4.2305546,4.8267107,-0.2443461,-0.09773844,-0.058643065
1757748696857,3.394978,-3.821146,4.5298295,-0.2443461,-0.09773844,-0.058643065
1757748696858,3.394978,-3.821146,4.5298295,-0.22357668,-0.19058995,-0.10873401
1757748696876,3.0933087,-3.1004913,3.7924154,-0.22357668,-0.19058995,-0.10873401
1757748696876,3.0933087,-3.1004913,3.7924154,-0.40683624,-0.31031954,-0.14538592
1757748696897,3.1483753,-3.6607344,3.095703,-0.40683624,-0.31031954,-0.14538592
1757748696897,3.1483753,-3.6607344,3.095703,-0.5546656,-0.34697145,-0.11362094
1757748696916,3.6487634,-3.7780502,2.7700913,-0.5546656,-0.34697145,-0.11362094
1757748696917,3.6487634,-3.7780502,2.7700913,-0.52656585,-0.31642818,-0.07941248
1757748696936,3.8067808,-3.9336734,2.468422,-0.52656585,-0.31642818,-0.07941248
1757748696937,3.8067808,-3.9336734,2.468422,-0.45814893,-0.24312437,-0.058643065
1757748696955,3.6966474,-4.086902,2.3822308,-0.45814893,-0.24312437,-0.058643065
1757748696956,3.6966474,-4.086902,2.3822308,-0.41538838,-0.2003638,-0.059864793
1757748696976,3.4763808,-3.9576154,2.1763294,-0.41538838,-0.2003638,-0.059864793
1757748696977,3.4763808,-3.9576154,2.1763294,-0.3286455,-0.13805555,-0.032986723
1757748696997,3.7469256,-3.8594532,2.4732103,-0.3286455,-0.13805555,-0.032986723
1757748697000,3.7469256,-3.8594532,2.4732103,-0.33841935,-0.12583824,-0.0061086523
1757748697018,4.1060557,-4.220978,2.5761611,-0.33841935,-0.12583824,-0.0061086523
1757748697019,4.1060557,-4.220978,2.5761611,-0.408058,-0.15271631,0.02443461
1757748697039,4.3119574,-4.5058875,2.6048915,-0.408058,-0.15271631,0.02443461
1757748697040,4.3119574,-4.5058875,2.6048915,-0.4092797,-0.19914207,0.02076942
1757748697058,3.9935284,-4.711789,2.777274,-0.4092797,-0.19914207,0.02076942
1757748697060,3.9935284,-4.711789,2.777274,-0.39461896,-0.16982053,0.012217305
1757748697079,4.027047,-4.939238,3.5003228,-0.39461896,-0.16982053,0.012217305
1757748697080,4.027047,-4.939238,3.5003228,-0.32498032,-0.0720821,0.039095376
1757748697098,4.1252093,-5.118803,4.0054994,-0.32498032,-0.0720821,0.039095376
1757748697100,4.1252093,-5.118803,4.0054994,-0.25900686,-0.057421334,0.05497787
1757748697117,4.4340615,-5.437232,4.0557775,-0.25900686,-0.057421334,0.05497787
1757748697118,4.4340615,-5.437232,4.0557775,-0.25289822,-0.17104226,0.02687807
1757748697139,4.903325,-5.9424086,3.5362358,-0.25289822,-0.17104226,0.02687807
1757748697140,4.903325,-5.9424086,3.5362358,-0.36041048,-0.31887165,-0.018325957
1757748697158,5.3438582,-6.4906807,3.6846764,-0.36041048,-0.31887165,-0.018325957
1757748697160,5.3438582,-6.4906807,3.6846764,-0.39828414,-0.34697145,-0.05009095
1757748697180,5.3103395,-6.76362,4.280833,-0.39828414,-0.34697145,-0.05009095
1757748697181,5.3103395,-6.76362,4.280833,-0.4288274,-0.3115413,-0.07696902
1757748697199,5.221754,-7.1610575,4.3646297,-0.4288274,-0.3115413,-0.07696902
1757748697201,5.221754,-7.1610575,4.3646297,-0.46670106,-0.32253686,-0.112399206
1757748697220,5.628768,-7.457938,4.489128,-0.46670106,-0.32253686,-0.112399206
1757748697221,5.628768,-7.457938,4.489128,-0.3286455,-0.32375857,-0.1563815
1757748697239,6.205771,-7.2113357,4.2784386,-0.3286455,-0.32375857,-0.1563815
1757748697240,6.205771,-7.2113357,4.2784386,-0.19058995,-0.26389378,-0.13072516
1757748697260,6.363788,-6.8761473,4.225766,-0.19058995,-0.26389378,-0.13072516
1757748697261,6.363788,-6.8761473,4.225766,-0.17959438,-0.20647246,-0.103847094
1757748697279,6.081272,-7.2687964,4.268862,-0.17959438,-0.20647246,-0.103847094
1757748697281,6.081272,-7.2687964,4.268862,-0.30909783,-0.15027285,-0.09040806
1757748697301,5.93762,-8.248025,4.367024,-0.30909783,-0.15027285,-0.09040806
1757748697302,5.93762,-8.248025,4.367024,-0.3481932,-0.06719518,-0.07574729
1757748697320,6.0740895,-8.781932,4.7620673,-0.3481932,-0.06719518,-0.07574729
1757748697321,6.0740895,-8.781932,4.7620673,-0.12950343,0.02443461,-0.081855945
1757748697340,5.973533,-8.53054,4.781221,-0.12950343,0.02443461,-0.081855945
1757748697341,5.973533,-8.53054,4.781221,0.04642576,0.057421334,-0.096516706
1757748697358,6.181829,-8.1881695,4.3885717,0.04642576,0.057421334,-0.096516706
1757748697359,6.181829,-8.1881695,4.3885717,0.042760566,0.013439035,-0.09407325
1757748697380,6.9743094,-7.85777,4.096479,0.042760566,0.013439035,-0.09407325
1757748697381,6.9743094,-7.85777,4.096479,-0.05131268,-0.015882496,-0.04153884
1757748697399,7.821857,-9.148245,4.548983,-0.05131268,-0.015882496,-0.04153884
1757748697400,7.821857,-9.148245,4.548983,-0.17348573,0.037873644,0.004886922
1757748697419,7.5584946,-10.237606,5.5258174,-0.17348573,0.037873644,0.004886922
1757748697421,7.5584946,-10.237606,5.5258174,-0.1685988,0.04642576,0.0061086523
1757748697439,7.5225816,-10.491392,5.7149596,-0.1685988,0.04642576,0.0061086523
1757748697440,7.5225816,-10.491392,5.7149596,-0.096516706,-0.040317107,-0.056199603
1757748697460,8.166622,-10.160992,5.2720323,-0.096516706,-0.040317107,-0.056199603
1757748697462,8.166622,-10.160992,5.2720323,-0.05375614,-0.13683382,-0.095294975
1757748697479,8.827422,-10.479421,4.900931,-0.05375614,-0.13683382,-0.095294975
1757748697480,8.827422,-10.479421,4.900931,-0.034208454,-0.14294247,-0.08674286
1757748697500,9.074024,-10.929531,5.142745,-0.034208454,-0.14294247,-0.08674286
1757748697501,9.074024,-10.929531,5.142745,0.009773844,-0.07941248,-0.05009095
1757748697519,9.320627,-11.705252,5.386954,0.009773844,-0.07941248,-0.05009095
1757748697520,9.320627,-11.705252,5.386954,-0.06963864,-0.09407325,-0.017104227
1757748697539,9.428367,-12.339716,5.3582234,-0.06963864,-0.09407325,-0.017104227
1757748697541,9.428367,-12.339716,5.3582234,-0.16982053,-0.1600467,-0.030543262
1757748697559,10.060435,-12.200851,5.8203044,-0.16982053,-0.1600467,-0.030543262
1757748697561,10.060435,-12.200851,5.8203044,-0.02687807,-0.20891592,-0.07819075
1757748697579,10.132261,-11.420342,5.8945246,-0.02687807,-0.20891592,-0.07819075
1757748697581,10.132261,-11.420342,5.8945246,0.10995574,-0.15271631,-0.06352998
1757748697598,9.866506,-10.888829,5.671864,0.10995574,-0.15271631,-0.06352998
1757748697600,9.866506,-10.888829,5.671864,0.14905111,-0.12461651,-0.080634214
1757748697616,9.65821,-10.465055,5.8346696,0.14905111,-0.12461651,-0.080634214
1757748697616,9.65821,-10.465055,5.8346696,0.14660765,-0.09407325,-0.07086037
1757748697635,9.504981,-10.500969,5.542577,0.14660765,-0.09407325,-0.07086037
1757748697635,9.504981,-10.500969,5.542577,0.06841691,-0.06719518,-0.058643065
1757748697655,9.382876,-10.771513,5.403713,0.06841691,-0.06719518,-0.058643065
1757748697656,9.382876,-10.771513,5.403713,0.13316862,0.013439035,-0.047647487
1757748697678,8.394072,-10.3932295,5.4779334,0.13316862,0.013439035,-0.047647487
1757748697680,8.394072,-10.3932295,5.4779334,0.32498032,0.13194689,-0.056199603
1757748697698,7.5824366,-9.615114,5.245696,0.32498032,0.13194689,-0.056199603
1757748697699,7.5824366,-9.615114,5.245696,0.376293,0.20525073,-0.061086524
1757748697719,7.297527,-8.918402,4.76925,0.376293,0.20525073,-0.061086524
1757748697721,7.297527,-8.918402,4.76925,0.32620203,0.20525073,-0.037873644
1757748697741,7.5082164,-8.298303,3.667917,0.32620203,0.20525073,-0.037873644
1757748697742,7.5082164,-8.298303,3.667917,0.27366763,0.16249016,-0.0036651916
1757748697760,7.4148426,-8.2169,3.5913026,0.27366763,0.16249016,-0.0036651916
1757748697761,7.4148426,-8.2169,3.5913026,0.32620203,0.22479841,0.010995574
1757748697781,6.919243,-8.106767,4.015076,0.32620203,0.22479841,0.010995574
1757748697783,6.919243,-8.106767,4.015076,0.3005457,0.28221974,0.035430185
1757748697800,6.5960255,-8.228871,4.122815,0.3005457,0.28221974,0.035430185
1757748697801,6.5960255,-8.228871,4.122815,0.2321288,0.27000242,0.05497787
1757748697821,6.567295,-8.238448,3.8977604,0.2321288,0.27000242,0.05497787
1757748697822,6.567295,-8.238448,3.8977604,0.26633725,0.23701571,0.07574729
1757748697839,6.5864487,-8.176199,3.892972,0.26633725,0.23701571,0.07574729
1757748697841,6.5864487,-8.176199,3.892972,0.2919936,0.24190263,0.09040806
1757748697861,6.2129536,-8.456321,4.43885,0.2919936,0.24190263,0.09040806
1757748697862,6.2129536,-8.456321,4.43885,0.22357668,0.28221974,0.10873401
1757748697880,5.98311,-8.425196,4.9320555,0.22357668,0.28221974,0.10873401
1757748697882,5.98311,-8.425196,4.9320555,0.1966986,0.27977628,0.111177474
1757748697899,6.421249,-8.015787,5.0876784,0.1966986,0.27977628,0.111177474
1757748697901,6.421249,-8.015787,5.0876784,0.28221974,0.23701571,0.095294975
1757748697921,6.7229185,-7.603985,5.046977,0.28221974,0.23701571,0.095294975
1757748697922,6.7229185,-7.603985,5.046977,0.42638394,0.25289822,0.112399206
1757748697941,6.4188547,-7.326257,4.8722005,0.42638394,0.25289822,0.112399206
1757748697942,6.4188547,-7.326257,4.8722005,0.52778757,0.31764993,0.12950343
1757748697960,6.0645127,-7.2544312,4.6806645,0.52778757,0.31764993,0.12950343
1757748697962,6.0645127,-7.2544312,4.6806645,0.548557,0.36774087,0.15027285
1757748697980,5.7029886,-7.0700774,4.9655743,0.548557,0.36774087,0.15027285
1757748697981,5.7029886,-7.0700774,4.9655743,0.57787853,0.40439278,0.15271631
1757748698000,5.3678,-6.873753,4.9895163,0.57787853,0.40439278,0.15271631
1757748698001,5.3678,-6.873753,4.9895163,0.5522222,0.43860126,0.15760323
1757748698020,5.2289367,-6.4882865,4.5896845,0.5522222,0.43860126,0.15760323
1757748698021,5.2289367,-6.4882865,4.5896845,0.56077427,0.47525316,0.17348573
1757748698040,5.0254292,-6.191406,4.4196963,0.56077427,0.47525316,0.17348573
1757748698041,5.0254292,-6.191406,4.4196963,0.689056,0.50823987,0.17715092
1757748698060,4.805163,-5.470751,4.283227,0.689056,0.50823987,0.17715092
1757748698061,4.805163,-5.470751,4.283227,0.8332202,0.54733527,0.17104226
1757748698081,4.3598413,-4.5633483,4.1826706,0.8332202,0.54733527,0.17104226
1757748698082,4.3598413,-4.5633483,4.1826706,0.80756384,0.53023106,0.14294247
1757748698101,4.1012673,-4.2784386,4.187459,0.80756384,0.53023106,0.14294247
1757748698103,4.1012673,-4.2784386,4.187459,0.6731735,0.48747048,0.12583824
1757748698119,3.7445314,-4.280833,4.1156325,0.6731735,0.48747048,0.12583824
1757748698121,3.7445314,-4.280833,4.1156325,0.516792,0.41905355,0.089186326
1757748698140,3.3901896,-4.0821137,4.06296,0.516792,0.41905355,0.089186326
1757748698141,3.3901896,-4.0821137,4.06296,0.47403142,0.34330627,0.064751714
1757748698161,3.1507695,-3.8235402,4.1012673,0.47403142,0.34330627,0.064751714
1757748698162,3.1507695,-3.8235402,4.1012673,0.45448375,0.30665436,0.057421334
1757748698181,3.0214825,-3.8115692,4.220978,0.45448375,0.30665436,0.057421334
1757748698183,3.0214825,-3.8115692,4.220978,0.3200934,0.28710666,0.09773844
1757748698200,3.1555579,-4.010288,4.5178585,0.3200934,0.28710666,0.09773844
1757748698202,3.1555579,-4.010288,4.5178585,0.21868975,0.25411993,0.14905111
1757748698219,3.0789435,-4.086902,4.5322237,0.21868975,0.25411993,0.14905111
1757748698221,3.0789435,-4.086902,4.5322237,0.20158553,0.2003638,0.17348573
1757748698239,2.8658595,-3.9360676,4.10845,0.20158553,0.2003638,0.17348573
1757748698241,2.8658595,-3.9360676,4.10845,0.25534168,0.13072516,0.15760323
1757748698261,2.755726,-3.4093432,3.7708676,0.25534168,0.13072516,0.15760323
1757748698263,2.755726,-3.4093432,3.7708676,0.3005457,0.11728613,0.13927728
1757748698281,2.60968,-3.0933087,3.4715924,0.3005457,0.11728613,0.13927728
1757748698282,2.60968,-3.0933087,3.4715924,0.2773328,0.13194689,0.12705997
1757748698300,2.657564,-2.89459,3.4093432,0.2773328,0.13194689,0.12705997
1757748698302,2.657564,-2.89459,3.4093432,0.2773328,0.16615535,0.13683382
1757748698319,2.6719291,-2.7126305,3.3542767,0.2773328,0.16615535,0.13683382
1757748698321,2.6719291,-2.7126305,3.3542767,0.29932398,0.21135938,0.1685988
1757748698339,2.6192567,-2.5953147,3.4955344,0.29932398,0.21135938,0.1685988
1757748698341,2.6192567,-2.5953147,3.4955344,0.2565634,0.21868975,0.17715092
1757748698360,2.6120741,-2.6551697,3.9264908,0.2565634,0.21868975,0.17715092
1757748698362,2.6120741,-2.6551697,3.9264908,0.16493362,0.19792034,0.16982053
1757748698381,2.834735,-3.1387985,4.405331,0.16493362,0.19792034,0.16982053
1757748698383,2.834735,-3.1387985,4.405331,0.035430185,0.13072516,0.13805555
1757748698400,3.394978,-3.9839516,5.0613422,0.035430185,0.13072516,0.13805555
1757748698402,3.394978,-3.9839516,5.0613422,-0.03176499,0.028099801,0.0842994
1757748698421,3.5913026,-4.4699745,6.5122285,-0.03176499,0.028099801,0.0842994
1757748698423,3.5913026,-4.4699745,6.5122285,-0.032986723,-0.11484267,0.010995574
1757748698439,4.0821137,-5.3103395,6.9024835,-0.032986723,-0.11484267,0.010995574
1757748698440,4.0821137,-5.3103395,6.9024835,-0.20647246,-0.23823744,-0.015882496
1757748698461,4.5274353,-6.220136,7.2951326,-0.20647246,-0.23823744,-0.015882496
1757748698463,4.5274353,-6.220136,7.2951326,-0.3286455,-0.34330627,-0.035430185
1757748698481,4.5801077,-6.8569937,7.553706,-0.3286455,-0.34330627,-0.035430185
1757748698482,4.5801077,-6.8569937,7.553706,-0.37995818,-0.41416663,-0.09407325
1757748698501,4.522647,-7.1083846,7.4627266,-0.37995818,-0.41416663,-0.09407325
1757748698502,4.522647,-7.1083846,7.4627266,-0.36774087,-0.41783184,-0.1282817
1757748698517,4.4220905,-6.885724,7.2592196,-0.36774087,-0.41783184,-0.1282817
1757748698518,4.4220905,-6.885724,7.2592196,-0.29443705,-0.376293,-0.14049901
1757748698539,4.5082817,-6.215348,7.041347,-0.29443705,-0.376293,-0.14049901
1757748698540,4.5082817,-6.215348,7.041347,-0.10262536,-0.28710666,-0.09285152
1757748698557,4.584896,-5.497087,6.5696893,-0.10262536,-0.28710666,-0.09285152
1757748698558,4.584896,-5.497087,6.5696893,0.06719518,-0.16737708,-0.02076942
1757748698578,4.987122,-5.1786585,6.4523735,0.06719518,-0.16737708,-0.02076942
1757748698581,4.987122,-5.1786585,6.4523735,0.05009095,-0.039095376,0.1001819
1757748698598,5.3007627,-5.7269306,6.0860605,0.05009095,-0.039095376,0.1001819
1757748698599,5.3007627,-5.7269306,6.0860605,-0.014660766,-0.0061086523,0.12217305
1757748698619,5.0278234,-5.829881,5.8945246,-0.014660766,-0.0061086523,0.12217305
1757748698620,5.0278234,-5.829881,5.8945246,-0.09162979,-0.017104227,0.09162979
1757748698637,4.6519337,-5.389348,6.117185,-0.09162979,-0.017104227,0.09162979
1757748698637,4.6519337,-5.389348,6.117185,-0.15027285,-0.05009095,0.019547688
1757748698659,4.381389,-5.1140146,5.849035,-0.15027285,-0.05009095,0.019547688
1757748698660,4.381389,-5.1140146,5.849035,-0.20525073,-0.10751228,-0.042760566
1757748698679,4.900931,-4.8003745,5.554548,-0.20525073,-0.10751228,-0.042760566
1757748698680,4.900931,-4.8003745,5.554548,-0.2443461,-0.13439035,-0.07086037
1757748698700,5.2480903,-5.305551,5.511452,-0.2443461,-0.13439035,-0.07086037
1757748698701,5.2480903,-5.305551,5.511452,-0.3640757,-0.12217305,-0.052534413
1757748698718,5.1259856,-5.995081,5.6120086,-0.3640757,-0.12217305,-0.052534413
1757748698720,5.1259856,-5.995081,5.6120086,-0.43493605,-0.096516706,-0.04520403
1757748698738,4.912902,-6.045359,5.719748,-0.43493605,-0.096516706,-0.04520403
1757748698739,4.912902,-6.045359,5.719748,-0.41416663,-0.07819075,-0.06719518
1757748698759,4.31914,-5.6407394,5.638345,-0.41416663,-0.07819075,-0.06719518
1757748698760,4.31914,-5.6407394,5.638345,-0.37140608,-0.09162979,-0.13439035
1757748698781,4.235343,-5.056554,5.499481,-0.37140608,-0.09162979,-0.13439035
1757748698782,4.235343,-5.056554,5.499481,-0.29810223,-0.07086037,-0.15027285
1757748698799,4.3885717,-4.6591167,5.3199162,-0.29810223,-0.07086037,-0.15027285
1757748698800,4.3885717,-4.6591167,5.3199162,-0.25289822,-0.04153884,-0.13072516
1757748698821,4.355053,-4.5992613,5.4061074,-0.25289822,-0.04153884,-0.13072516
1757748698822,4.355053,-4.5992613,5.4061074,-0.2773328,-0.02687807,-0.112399206
1757748698840,4.2042184,-4.4556093,5.377377,-0.2773328,-0.02687807,-0.112399206
1757748698840,4.2042184,-4.4556093,5.377377,-0.31887165,-0.057421334,-0.095294975
1757748698860,4.1036615,-5.035006,5.1786585,-0.31887165,-0.057421334,-0.095294975
1757748698861,4.1036615,-5.035006,5.1786585,-0.4129449,-0.13805555,-0.10629055
1757748698881,3.9959226,-5.33907,5.011064,-0.4129449,-0.13805555,-0.10629055
1757748698883,3.9959226,-5.33907,5.011064,-0.42394048,-0.22113322,-0.14660765
1757748698901,3.6727054,-5.3223104,4.63278,-0.42394048,-0.22113322,-0.14660765
1757748698903,3.6727054,-5.3223104,4.63278,-0.37995818,-0.27855456,-0.17104226
1757748698920,3.2968156,-4.7907977,4.1132383,-0.37995818,-0.27855456,-0.17104226
1757748698921,3.2968156,-4.7907977,4.1132383,-0.2565634,-0.28344148,-0.15393804
1757748698941,3.3542767,-4.2664676,3.2968156,-0.2565634,-0.28344148,-0.15393804
1757748698943,3.3542767,-4.2664676,3.2968156,-0.20769419,-0.24312437,-0.10629055
1757748698961,3.6583402,-3.8857894,2.9496565,-0.20769419,-0.24312437,-0.10629055
1757748698962,3.6583402,-3.8857894,2.9496565,-0.18325958,-0.17348573,-0.02565634
1757748698982,3.5865142,-4.0557775,2.7509377,-0.18325958,-0.17348573,-0.02565634
1757748698983,3.5865142,-4.0557775,2.7509377,-0.25411993,-0.10873401,0.036651913
1757748699001,3.6176388,-4.2760444,2.954445,-0.25411993,-0.10873401,0.036651913
1757748699002,3.6176388,-4.2760444,2.954445,-0.31642818,-0.080634214,0.057421334
1757748699019,3.7612908,-4.663905,3.3854012,-0.31642818,-0.080634214,0.057421334
1757748699020,3.7612908,-4.663905,3.3854012,-0.41172317,-0.07696902,0.056199603
1757748699041,3.928885,-5.145139,3.6607344,-0.41172317,-0.07696902,0.056199603
1757748699043,3.928885,-5.145139,3.6607344,-0.4361578,-0.065973446,0.036651913
1757748699062,4.0342298,-5.3486466,3.6942532,-0.4361578,-0.065973446,0.036651913
1757748699064,4.0342298,-5.3486466,3.6942532,-0.36651915,-0.042760566,0.012217305
1757748699081,4.060566,-5.245696,3.7062242,-0.36651915,-0.042760566,0.012217305
1757748699083,4.060566,-5.245696,3.7062242,-0.25289822,-0.018325957,-0.015882496
1757748699101,4.1611223,-4.6806645,3.6272156,-0.25289822,-0.018325957,-0.015882496
1757748699103,4.1611223,-4.6806645,3.6272156,-0.20647246,-0.07086037,-0.043982297
1757748699121,4.584896,-4.6232033,3.7660792,-0.20647246,-0.07086037,-0.043982297
1757748699123,4.584896,-4.6232033,3.7660792,-0.33964106,-0.11362094,-0.05497787
1757748699141,4.5896845,-5.535394,3.8283286,-0.33964106,-0.11362094,-0.05497787
1757748699142,4.5896845,-5.535394,3.8283286,-0.5131268,-0.118507855,-0.05009095
1757748699162,4.5657425,-6.0836663,4.2401314,-0.5131268,-0.118507855,-0.05009095
1757748699163,4.5657425,-6.0836663,4.2401314,-0.44226643,-0.10751228,-0.04153884
1757748699182,4.501099,-6.277597,4.390966,-0.44226643,-0.10751228,-0.04153884
1757748699184,4.501099,-6.277597,4.390966,-0.29077184,-0.12583824,-0.052534413
1757748699201,4.663905,-6.145916,4.3287168,-0.29077184,-0.12583824,-0.052534413
1757748699203,4.663905,-6.145916,4.3287168,-0.25167647,-0.17592919,-0.06963864
1757748699219,4.84347,-6.114791,4.3526587,-0.25167647,-0.17592919,-0.06963864
1757748699220,4.84347,-6.114791,4.3526587,-0.31520647,-0.22724187,-0.06841691
1757748699238,5.032612,-6.3805475,4.345476,-0.31520647,-0.22724187,-0.06841691
1757748699239,5.032612,-6.3805475,4.345476,-0.31764993,-0.22968534,-0.058643065
1757748699259,5.056554,-7.1275387,4.4795513,-0.31764993,-0.22968534,-0.058643065
1757748699260,5.056554,-7.1275387,4.4795513,-0.19303341,-0.13561209,-0.040317107
1757748699278,5.068525,-7.417237,4.620809,-0.19303341,-0.13561209,-0.040317107
1757748699280,5.068525,-7.417237,4.620809,-0.07086037,-0.103847094,-0.03176499
1757748699297,5.2744265,-7.264008,4.357447,-0.07086037,-0.103847094,-0.03176499
1757748699297,5.2744265,-7.264008,4.357447,-0.013439035,-0.119729586,-0.034208454
1757748699316,5.403713,-7.177817,4.072537,-0.013439035,-0.119729586,-0.034208454
1757748699317,5.403713,-7.177817,4.072537,0.019547688,-0.15393804,-0.02565634
1757748699337,5.731719,-6.8306575,4.3406878,0.019547688,-0.15393804,-0.02565634
1757748699338,5.731719,-6.8306575,4.3406878,0.11362094,-0.12950343,-0.014660766
1757748699358,5.827487,-7.153875,4.6926355,0.11362094,-0.12950343,-0.014660766
1757748699359,5.827487,-7.153875,4.6926355,0.014660766,-0.09407325,0.02565634
1757748699380,5.913678,-8.078036,4.7884035,0.014660766,-0.09407325,0.02565634
1757748699381,5.913678,-8.078036,4.7884035,-0.21013765,-0.15760323,0.004886922
1757748699400,6.244078,-8.049306,4.6830587,-0.21013765,-0.15760323,0.004886922
1757748699401,6.244078,-8.049306,4.6830587,-0.22357668,-0.21624629,-0.05009095
1757748699419,6.6247563,-7.881712,4.656722,-0.22357668,-0.21624629,-0.05009095
1757748699420,6.6247563,-7.881712,4.656722,-0.2565634,-0.23823744,-0.07086037
1757748699438,6.766014,-8.365341,5.499481,-0.2565634,-0.23823744,-0.07086037
1757748699439,6.766014,-8.365341,5.499481,-0.2125811,-0.15882497,-0.05009095
1757748699462,6.409278,-8.133103,5.770026,-0.2125811,-0.15882497,-0.05009095
1757748699463,6.409278,-8.133103,5.770026,-0.06719518,-0.12583824,-0.037873644
1757748699481,6.8665705,-8.47308,5.3701944,-0.06719518,-0.12583824,-0.037873644
1757748699483,6.8665705,-8.47308,5.3701944,-0.05009095,-0.17959438,-0.019547688
1757748699501,7.7332716,-9.698911,4.781221,-0.05009095,-0.17959438,-0.019547688
1757748699503,7.7332716,-9.698911,4.781221,-0.15882497,-0.24923302,0.004886922
1757748699520,7.726089,-10.857705,5.097255,-0.15882497,-0.24923302,0.004886922
1757748699521,7.726089,-10.857705,5.097255,-0.15271631,-0.21380283,0.007330383
1757748699542,7.860164,-10.9103775,5.8107276,-0.15271631,-0.21380283,0.007330383
1757748699544,7.860164,-10.9103775,5.8107276,-0.07086037,-0.1600467,0.002443461
1757748699561,8.59279,-10.553641,5.765238,-0.07086037,-0.1600467,0.002443461
1757748699563,8.59279,-10.553641,5.765238,0.002443461,-0.17104226,-0.034208454
1757748699583,9.260772,-10.7116585,5.6790466,0.002443461,-0.17104226,-0.034208454
1757748699584,9.260772,-10.7116585,5.6790466,-0.02076942,-0.17959438,-0.029321533
1757748699600,10.216059,-11.760319,5.631162,-0.02076942,-0.17959438,-0.029321533
1757748699601,10.216059,-11.760319,5.631162,-0.13561209,-0.19303341,0.05497787
1757748699621,11.293449,-12.406754,5.566519,-0.13561209,-0.19303341,0.05497787
1757748699623,11.293449,-12.406754,5.566519,-0.10873401,-0.22602014,0.058643065
1757748699642,11.257536,-12.933477,5.758055,-0.10873401,-0.22602014,0.058643065
1757748699643,11.257536,-12.933477,5.758055,-0.20525073,-0.27000242,-0.002443461
1757748699662,9.763555,-12.658144,6.232107,-0.20525073,-0.27000242,-0.002443461
1757748699664,9.763555,-12.658144,6.232107,-0.2846632,-0.21502456,-0.089186326
1757748699682,8.485051,-12.356475,7.2424603,-0.2846632,-0.21502456,-0.089186326
1757748699684,8.485051,-12.356475,7.2424603,-0.3494149,-0.05009095,-0.08674286
1757748699703,7.81228,-11.882423,7.2783732,-0.3494149,-0.05009095,-0.08674286
1757748699704,7.81228,-11.882423,7.2783732,-0.08552113,0.09773844,0.002443461
1757748699722,7.8769236,-10.517728,6.993463,-0.08552113,0.09773844,0.002443461
1757748699723,7.8769236,-10.517728,6.993463,0.43127087,0.2284636,0.10629055
1757748699742,7.869741,-10.13705,5.9424086,0.43127087,0.2284636,0.10629055
1757748699744,7.869741,-10.13705,5.9424086,0.61086524,0.2883284,0.19792034
1757748699761,7.9750857,-9.428367,4.7548847,0.61086524,0.2883284,0.19792034
1757748699762,7.9750857,-9.428367,4.7548847,0.6768387,0.34208453,0.20891592
1757748699783,7.548918,-8.042124,4.003105,0.6768387,0.34208453,0.20891592
1757748699784,7.548918,-8.042124,4.003105,0.48624873,0.43249258,0.10751228
1757748699802,6.979098,-7.7332716,4.3143516,0.48624873,0.43249258,0.10751228
1757748699803,6.979098,-7.7332716,4.3143516,0.38728857,0.45081854,0.07819075
1757748699822,6.706159,-7.881712,4.3023806,0.38728857,0.45081854,0.07819075
1757748699824,6.706159,-7.881712,4.3023806,0.36774087,0.41172317,0.08307768
1757748699841,6.8450227,-7.615956,4.110844,0.36774087,0.41172317,0.08307768
1757748699843,6.8450227,-7.615956,4.110844,0.36285394,0.3481932,0.062308256
1757748699862,6.205771,-8.35337,4.2066126,0.36285394,0.3481932,0.062308256
1757748699864,6.205771,-8.35337,4.2066126,0.13194689,0.29565877,0.02687807
1757748699882,5.671864,-8.755595,5.092467,0.13194689,0.29565877,0.02687807
1757748699884,5.671864,-8.755595,5.092467,0.029321533,0.26145032,-0.021991149
1757748699901,5.4539914,-8.566454,5.499481,0.029321533,0.26145032,-0.021991149
1757748699903,5.4539914,-8.566454,5.499481,0.1160644,0.18692477,-0.080634214
1757748699922,6.0621185,-7.7093296,5.17387,0.1160644,0.18692477,-0.080634214
1757748699924,6.0621185,-7.7093296,5.17387,0.26389378,0.11362094,-0.1160644
1757748699943,6.1770406,-7.6949644,5.207389,0.26389378,0.11362094,-0.1160644
1757748699944,6.1770406,-7.6949644,5.207389,0.23945917,0.13927728,-0.039095376
1757748699961,5.7748146,-8.070854,5.434838,0.23945917,0.13927728,-0.039095376
1757748699962,5.7748146,-8.070854,5.434838,0.2284636,0.19303341,0.04520403
1757748699981,5.659893,-8.832211,5.0278234,0.2284636,0.19303341,0.04520403
1757748699983,5.659893,-8.832211,5.0278234,0.27488935,0.2125811,0.07452556
1757748699999,5.853823,-8.497022,4.7261543,0.27488935,0.2125811,0.07452556
1757748700000,5.853823,-8.497022,4.7261543,0.48991394,0.26511553,0.09896017
1757748700020,6.289568,-7.4746976,4.6232033,0.48991394,0.26511553,0.09896017
1757748700021,6.289568,-7.4746976,4.6232033,0.57910025,0.3481932,0.118507855
1757748700039,6.279991,-7.00304,4.7141833,0.57910025,0.3481932,0.118507855
1757748700040,6.279991,-7.00304,4.7141833,0.52778757,0.41538838,0.14660765
1757748700059,5.734113,-6.7827735,4.88896,0.52778757,0.41538838,0.14660765
1757748700059,5.734113,-6.7827735,4.88896,0.5216789,0.48258355,0.17715092
1757748700080,5.48751,-6.208165,4.9440265,0.5216789,0.48258355,0.17715092
1757748700080,5.48751,-6.208165,4.9440265,0.5546656,0.5290093,0.18081611
1757748700102,5.195418,-5.8107276,4.8937483,0.5546656,0.5290093,0.18081611
1757748700103,5.195418,-5.8107276,4.8937483,0.51068336,0.5546656,0.16737708
1757748700121,4.6591167,-5.470751,5.0374002,0.51068336,0.5546656,0.16737708
1757748700122,4.6591167,-5.470751,5.0374002,0.42394048,0.5839872,0.14049901
1757748700142,4.1180267,-5.0182467,5.0421886,0.42394048,0.5839872,0.14049901
1757748700145,4.1180267,-5.0182467,5.0421886,0.45204028,0.57543504,0.112399206
1757748700162,3.7253778,-4.7189717,5.0900726,0.45204028,0.57543504,0.112399206
1757748700164,3.7253778,-4.7189717,5.0900726,0.45937067,0.5204572,0.08674286
1757748700183,3.3159695,-4.7668557,4.7884035,0.45937067,0.5204572,0.08674286
1757748700185,3.3159695,-4.7668557,4.7884035,0.39584067,0.43004912,0.06352998
1757748700202,2.992752,-4.465186,4.4316673,0.39584067,0.43004912,0.06352998
1757748700204,2.992752,-4.465186,4.4316673,0.3652974,0.34574974,0.057421334
1757748700222,3.028665,-4.1395745,4.015076,0.3652974,0.34574974,0.057421334
1757748700223,3.028665,-4.1395745,4.015076,0.33108896,0.29077184,0.065973446
1757748700243,3.0597897,-3.9264908,4.003105,0.33108896,0.29077184,0.065973446
1757748700244,3.0597897,-3.9264908,4.003105,0.29443705,0.2565634,0.080634214
1757748700263,2.6240451,-3.6224272,4.0198646,0.29443705,0.2565634,0.080634214
1757748700265,2.6240451,-3.6224272,4.0198646,0.24190263,0.22724187,0.087964594
1757748700281,2.2577322,-3.4045548,3.9384618,0.24190263,0.22724187,0.087964594
1757748700283,2.2577322,-3.4045548,3.9384618,0.08674286,0.15882497,0.089186326
1757748700305,2.2290018,-3.514688,3.7732618,0.08674286,0.15882497,0.089186326
1757748700306,2.2290018,-3.514688,3.7732618,-0.012217305,0.13316862,0.1001819
1757748700321,2.1452048,-3.4739866,3.70383,-0.012217305,0.13316862,0.1001819
1757748700323,2.1452048,-3.4739866,3.70383,0.07086037,0.14294247,0.10995574
1757748700341,2.054225,-3.040636,3.4715924,0.07086037,0.14294247,0.10995574
1757748700343,2.054225,-3.040636,3.4715924,0.21624629,0.17592919,0.10751228
1757748700363,2.0374656,-2.6503813,2.9831753,0.21624629,0.17592919,0.10751228
1757748700364,2.0374656,-2.6503813,2.9831753,0.25778514,0.21380283,0.105068825
1757748700383,2.0278888,-2.4947581,3.095703,0.25778514,0.21380283,0.105068825
1757748700384,2.0278888,-2.4947581,3.095703,0.26267207,0.29077184,0.13439035
1757748700402,1.9847932,-2.566584,3.4835634,0.26267207,0.29077184,0.13439035
1757748700404,1.9847932,-2.566584,3.4835634,0.2443461,0.3494149,0.18081611
1757748700423,2.2050598,-3.016694,3.5936968,0.2443461,0.3494149,0.18081611
1757748700424,2.2050598,-3.016694,3.5936968,0.23701571,0.34697145,0.19058995
1757748700442,2.7844565,-3.2273839,3.9935284,0.23701571,0.34697145,0.19058995
1757748700444,2.7844565,-3.2273839,3.9935284,0.2406809,0.3323107,0.19181168
1757748700462,3.7229836,-4.3167458,5.279215,0.2406809,0.3323107,0.19181168
1757748700464,3.7229836,-4.3167458,5.279215,-0.029321533,0.27122417,0.17104226
1757748700483,3.7565024,-5.2863975,6.1530986,-0.029321533,0.27122417,0.17104226
1757748700484,3.7565024,-5.2863975,6.1530986,-0.118507855,0.17592919,0.12095132
1757748700503,3.787627,-6.3206925,6.8689647,-0.118507855,0.17592919,0.12095132
1757748700505,3.787627,-6.3206925,6.8689647,-0.19303341,0.036651913,0.008552114
1757748700523,3.892972,-7.007828,7.728483,-0.19303341,0.036651913,0.008552114
1757748700524,3.892972,-7.007828,7.728483,-0.28099802,-0.14782938,-0.09162979
1757748700543,3.8139634,-7.017405,8.231265,-0.28099802,-0.14782938,-0.09162979
1757748700544,3.8139634,-7.017405,8.231265,-0.38973203,-0.35063666,-0.204029
1757748700565,3.9384618,-7.00304,7.680599,-0.38973203,-0.35063666,-0.204029
1757748700567,3.9384618,-7.00304,7.680599,-0.49357912,-0.5558874,-0.29565877
1757748700581,4.4915223,-6.7205243,6.8689647,-0.49357912,-0.5558874,-0.29565877
1757748700582,4.4915223,-6.7205243,6.8689647,-0.4166101,-0.59864795,-0.3213151
1757748700601,4.7141833,-6.469133,6.4308257,-0.4166101,-0.59864795,-0.3213151
1757748700602,4.7141833,-6.469133,6.4308257,-0.23090707,-0.40561453,-0.23823744
1757748700621,4.3478703,-6.1650696,6.3182983,-0.23090707,-0.40561453,-0.23823744
1757748700622,4.3478703,-6.1650696,6.3182983,0.040317107,-0.014660766,-0.052534413
1757748700637,4.2042184,-6.157887,6.2392898,0.040317107,-0.014660766,-0.052534413
1757748700638,4.2042184,-6.157887,6.2392898,0.10262536,0.14049901,0.036651913
1757748700658,4.1683054,-6.351817,6.0525417,0.10262536,0.14049901,0.036651913
1757748700659,4.1683054,-6.351817,6.0525417,0.09040806,0.18325958,0.07452556
1757748700678,4.24492,-5.9304376,5.710171,0.09040806,0.18325958,0.07452556
1757748700679,4.24492,-5.9304376,5.710171,0.12583824,0.16982053,0.056199603
1757748700698,4.1659107,-5.511452,5.6431336,0.12583824,0.16982053,0.056199603
1757748700699,4.1659107,-5.511452,5.6431336,0.12217305,0.118507855,0.014660766
1757748700718,4.1683054,-5.044583,5.9663506,0.12217305,0.118507855,0.014660766
1757748700718,4.1683054,-5.044583,5.9663506,0.019547688,-0.004886922,-0.039095376
1757748700743,3.9671922,-5.0038815,6.167464,0.019547688,-0.004886922,-0.039095376
1757748700744,3.9671922,-5.0038815,6.167464,-0.21991149,-0.1881465,-0.09162979
1757748700761,3.6463692,-5.3318872,6.196194,-0.21991149,-0.1881465,-0.09162979
1757748700762,3.6463692,-5.3318872,6.196194,-0.41538838,-0.3640757,-0.12583824
1757748700782,3.3063924,-5.398925,6.0764837,-0.41538838,-0.3640757,-0.12583824
1757748700783,3.3063924,-5.398925,6.0764837,-0.48991394,-0.5021312,-0.1563815
1757748700801,3.2561142,-5.4204726,6.203377,-0.48991394,-0.5021312,-0.1563815
1757748700803,3.2561142,-5.4204726,6.203377,-0.51068336,-0.52778757,-0.14905111
1757748700823,3.6391866,-5.281609,6.291962,-0.51068336,-0.52778757,-0.14905111
1757748700824,3.6391866,-5.281609,6.291962,-0.4728097,-0.54244834,-0.12705997
1757748700843,4.0581717,-5.1235914,5.98311,-0.4728097,-0.54244834,-0.12705997
1757748700844,4.0581717,-5.1235914,5.98311,-0.43371433,-0.53023106,-0.09407325
1757748700863,4.4460325,-5.29358,5.6000376,-0.43371433,-0.53023106,-0.09407325
1757748700864,4.4460325,-5.29358,5.6000376,-0.44715336,-0.49480084,-0.057421334
1757748700883,4.4005427,-5.41329,5.415684,-0.44715336,-0.49480084,-0.057421334
1757748700884,4.4005427,-5.41329,5.415684,-0.46792278,-0.44837508,-0.035430185
1757748700904,3.9312792,-5.5856724,5.0302176,-0.46792278,-0.44837508,-0.035430185
1757748700906,3.9312792,-5.5856724,5.0302176,-0.43982297,-0.4129449,-0.02565634
1757748700922,3.4739866,-5.1930237,4.474763,-0.43982297,-0.4129449,-0.02565634
1757748700924,3.4739866,-5.1930237,4.474763,-0.30176744,-0.3726278,-0.02565634
1757748700944,3.2704794,-4.9057193,3.6822822,-0.30176744,-0.3726278,-0.02565634
1757748700946,3.2704794,-4.9057193,3.6822822,-0.16737708,-0.33475417,-0.019547688
1757748700961,3.5122938,-3.952827,2.7605145,-0.16737708,-0.33475417,-0.019547688
1757748700963,3.5122938,-3.952827,2.7605145,-0.032986723,-0.19058995,0.030543262
1757748700984,3.4835634,-3.8738184,2.1428106,-0.032986723,-0.19058995,0.030543262
1757748700986,3.4835634,-3.8738184,2.1428106,-0.096516706,-0.0842994,0.09040806
1757748701003,3.1435869,-4.4244847,1.5586253,-0.096516706,-0.0842994,0.09040806
1757748701004,3.1435869,-4.4244847,1.5586253,0.18936823,0.012217305,0.12461651
1757748701023,3.3135753,-3.2800562,2.2936451,0.18936823,0.012217305,0.12461651
1757748701024,3.3135753,-3.2800562,2.2936451,0.8136725,0.11484267,0.1282817
1757748701043,3.4404678,-2.3319526,3.2082303,0.8136725,0.11484267,0.1282817
1757748701045,3.4404678,-2.3319526,3.2082303,0.6646214,0.103847094,0.12095132
1757748701064,3.8546648,-3.904943,3.3494883,0.6646214,0.103847094,0.12095132
1757748701066,3.8546648,-3.904943,3.3494883,-0.06352998,-0.14905111,0.09773844
1757748701083,3.9863458,-4.8027687,3.2680852,-0.06352998,-0.14905111,0.09773844
1757748701085,3.9863458,-4.8027687,3.2680852,-0.25534168,-0.3042109,0.04886922
1757748701104,3.8379054,-5.145139,2.6192567,-0.25534168,-0.3042109,0.04886922
1757748701105,3.8379054,-5.145139,2.6192567,-0.013439035,-0.30665436,-0.02565634
1757748701123,3.845088,-4.1036615,2.96881,-0.013439035,-0.30665436,-0.02565634
1757748701124,3.845088,-4.1036615,2.96881,0.40194935,-0.17959438,-0.052534413
1757748701144,4.213795,-3.5745432,4.1683054,0.40194935,-0.17959438,-0.052534413
1757748701145,4.213795,-3.5745432,4.1683054,0.23457226,-0.119729586,-0.004886922
1757748701164,4.55856,-3.8714242,4.570531,0.23457226,-0.119729586,-0.004886922
1757748701165,4.55856,-3.8714242,4.570531,-0.16982053,-0.21868975,0.05131268
1757748701184,4.5801077,-5.3606176,4.6279917,-0.16982053,-0.21868975,0.05131268
1757748701187,4.5801077,-5.3606176,4.6279917,-0.6010914,-0.2883284,0.06963864
1757748701203,4.8961425,-6.7253127,4.996699,-0.6010914,-0.2883284,0.06963864
1757748701204,4.8961425,-6.7253127,4.996699,-0.63529986,-0.2883284,0.036651913
1757748701224,4.4005427,-7.177817,5.971139,-0.63529986,-0.2883284,0.036651913
1757748701226,4.4005427,-7.177817,5.971139,-0.4007276,-0.17959438,-0.028099801
1757748701244,4.3526587,-7.16824,5.717354,-0.4007276,-0.17959438,-0.028099801
1757748701245,4.3526587,-7.16824,5.717354,-0.12705997,-0.15882497,-0.09896017
1757748701262,4.7907977,-6.435614,5.094861,-0.12705997,-0.15882497,-0.09896017
1757748701263,4.7907977,-6.435614,5.094861,0.112399206,-0.17837265,-0.10873401
1757748701281,5.3486466,-5.896919,4.546589,0.112399206,-0.17837265,-0.10873401
1757748701282,5.3486466,-5.896919,4.546589,0.17959438,-0.16737708,-0.05375614
1757748701301,5.3247046,-6.1938,4.6399627,0.17959438,-0.16737708,-0.05375614
1757748701303,5.3247046,-6.1938,4.6399627,-0.11728613,-0.065973446,0.04153884
1757748701320,5.0302176,-7.326257,5.2049947,-0.11728613,-0.065973446,0.04153884
1757748701321,5.0302176,-7.326257,5.2049947,-0.312763,0.007330383,0.09040806
1757748701341,5.080496,-8.015787,5.722142,-0.312763,0.007330383,0.09040806
1757748701343,5.080496,-8.015787,5.722142,-0.16982053,0.0,0.08307768
1757748701361,5.4563856,-7.9224133,5.8586116,-0.16982053,0.0,0.08307768
1757748701363,5.4563856,-7.9224133,5.8586116,0.062308256,-0.04520403,0.037873644
1757748701380,5.7843914,-7.97748,5.497087,0.062308256,-0.04520403,0.037873644
1757748701381,5.7843914,-7.97748,5.497087,0.07574729,-0.07086037,-0.004886922
1757748701400,5.4324436,-7.9583263,5.5258174,0.07574729,-0.07086037,-0.004886922
1757748701400,5.4324436,-7.9583263,5.5258174,0.059864793,-0.02076942,-0.010995574
1757748701423,5.1259856,-7.517793,5.9663506,0.059864793,-0.02076942,-0.010995574
1757748701424,5.1259856,-7.517793,5.9663506,0.008552114,0.029321533,0.008552114
1757748701441,5.705383,-8.030152,6.157887,0.008552114,0.029321533,0.008552114
1757748701442,5.705383,-8.030152,6.157887,-0.19914207,0.012217305,0.04520403
1757748701463,6.540959,-8.789114,6.4858923,-0.19914207,0.012217305,0.04520403
1757748701464,6.540959,-8.789114,6.4858923,-0.1966986,-0.0036651916,0.05497787
1757748701484,6.114791,-9.126697,6.993463,-0.1966986,-0.0036651916,0.05497787
1757748701485,6.114791,-9.126697,6.993463,0.14905111,0.009773844,0.036651913
1757748701502,7.335834,-9.308656,6.885724,0.14905111,0.009773844,0.036651913
1757748701503,7.335834,-9.308656,6.885724,0.28955013,-0.080634214,0.035430185
1757748701523,8.865729,-9.277532,6.7229185,0.28955013,-0.080634214,0.035430185
1757748701524,8.865729,-9.277532,6.7229185,0.27000242,-0.096516706,0.032986723
1757748701543,8.63828,-10.307038,7.28795,0.27000242,-0.096516706,0.032986723
1757748701545,8.63828,-10.307038,7.28795,-0.05131268,-0.04886922,0.0061086523
1757748701563,7.872135,-11.868058,7.7787614,-0.05131268,-0.04886922,0.0061086523
1757748701564,7.872135,-11.868058,7.7787614,-0.2919936,0.0,0.017104227
1757748701584,8.839393,-12.34211,7.9966335,-0.2919936,0.0,0.017104227
1757748701586,8.839393,-12.34211,7.9966335,-0.12583824,-0.06352998,0.02687807
1757748701603,10.819398,-12.157756,7.955932,-0.12583824,-0.06352998,0.02687807
1757748701604,10.819398,-12.157756,7.955932,0.11484267,-0.13683382,0.02565634
1757748701623,11.504139,-11.901577,8.121132,0.11484267,-0.13683382,0.02565634
1757748701624,11.504139,-11.901577,8.121132,0.13805555,-0.13805555,-0.002443461
1757748701643,8.9279785,-11.645397,8.499416,0.13805555,-0.13805555,-0.002443461
1757748701645,8.9279785,-11.645397,8.499416,-0.06963864,-0.11728613,-0.080634214
1757748701665,7.845799,-11.51611,8.281544,-0.06963864,-0.11728613,-0.080634214
1757748701666,7.845799,-11.51611,8.281544,-0.22968534,-0.172264,-0.16493362
1757748701684,8.248025,-10.398018,7.7787614,-0.22968534,-0.172264,-0.16493362
1757748701685,8.248025,-10.398018,7.7787614,-0.25411993,-0.16249016,-0.19547687
1757748701705,8.506598,-9.572019,7.8745294,-0.25411993,-0.16249016,-0.19547687
1757748701706,8.506598,-9.572019,7.8745294,-0.43004912,-0.065973446,-0.1441642
1757748701724,7.9726915,-10.201694,7.553706,-0.43004912,-0.065973446,-0.1441642
1757748701725,7.9726915,-10.201694,7.553706,-0.52778757,0.096516706,-0.04153884
1757748701742,7.357382,-9.600749,7.678205,-0.52778757,0.096516706,-0.04153884
1757748701744,7.357382,-9.600749,7.678205,-0.20525073,0.28221974,0.056199603
1757748701763,7.6614456,-9.399636,6.742072,-0.20525073,0.28221974,0.056199603
1757748701765,7.6614456,-9.399636,6.742072,-0.07941248,0.33475417,0.07941248
1757748701783,7.797915,-8.856153,5.7748146,-0.07941248,0.33475417,0.07941248
1757748701785,7.797915,-8.856153,5.7748146,0.073303826,0.37507126,0.04642576
1757748701804,7.302315,-8.073248,5.6407394,0.073303826,0.37507126,0.04642576
1757748701806,7.302315,-8.073248,5.6407394,0.07086037,0.43493605,0.0
1757748701825,6.4763155,-7.675811,5.1571107,0.07086037,0.43493605,0.0
1757748701826,6.4763155,-7.675811,5.1571107,-0.043982297,0.43249258,-0.06841691
1757748701844,5.7963624,-7.5561004,4.9320555,-0.043982297,0.43249258,-0.06841691
1757748701845,5.7963624,-7.5561004,4.9320555,-0.028099801,0.39584067,-0.095294975
1757748701865,5.8083334,-8.336611,4.72376,-0.028099801,0.39584067,-0.095294975
1757748701866,5.8083334,-8.336611,4.72376,-0.07819075,0.36774087,-0.080634214
1757748701884,5.889736,-8.652645,5.0900726,-0.07819075,0.36774087,-0.080634214
1757748701886,5.889736,-8.652645,5.0900726,-0.042760566,0.33964106,-0.10262536
1757748701904,5.4324436,-8.279149,5.1882353,-0.042760566,0.33964106,-0.10262536
1757748701906,5.4324436,-8.279149,5.1882353,-0.040317107,0.30298916,-0.14538592
1757748701924,5.1666875,-8.133103,5.3247046,-0.040317107,0.30298916,-0.14538592
1757748701925,5.1666875,-8.133103,5.3247046,-0.118507855,0.22602014,-0.13927728
1757748701945,4.7500963,-8.015787,5.118803,-0.118507855,0.22602014,-0.13927728
1757748701948,4.7500963,-8.015787,5.118803,-0.10995574,0.204029,-0.10751228
1757748701963,4.7860093,-8.034941,5.159505,-0.10995574,0.204029,-0.10751228
1757748701964,4.7860093,-8.034941,5.159505,-0.0036651916,0.21868975,-0.02076942
1757748701983,5.45878,-7.836222,5.231331,-0.0036651916,0.21868975,-0.02076942
1757748701984,5.45878,-7.836222,5.231331,0.07941248,0.23090707,0.08674286
1757748702004,5.566519,-8.250419,5.145139,0.07941248,0.23090707,0.08674286
1757748702005,5.566519,-8.250419,5.145139,0.0012217305,0.22235495,0.10995574
1757748702023,5.6407394,-8.23366,5.398925,0.0012217305,0.22235495,0.10995574
1757748702024,5.6407394,-8.23366,5.398925,0.07086037,0.22113322,0.09040806
1757748702043,5.209783,-7.8625584,5.5617304,0.07086037,0.22113322,0.09040806
1757748702045,5.209783,-7.8625584,5.5617304,0.2003638,0.26511553,0.06963864
1757748702065,4.805163,-7.4962454,5.463568,0.2003638,0.26511553,0.06963864
1757748702066,4.805163,-7.4962454,5.463568,0.2687807,0.26633725,0.057421334
1757748702084,4.656722,-7.1514807,5.094861,0.2687807,0.26633725,0.057421334
1757748702085,4.656722,-7.1514807,5.094861,0.35796702,0.26633725,0.059864793
1757748702105,4.7165775,-6.564901,4.7405195,0.35796702,0.26633725,0.059864793
1757748702106,4.7165775,-6.564901,4.7405195,0.4202753,0.2602286,0.06352998
1757748702124,4.9344497,-6.3949127,4.4436383,0.4202753,0.2602286,0.06352998
1757748702126,4.9344497,-6.3949127,4.4436383,0.38973203,0.27122417,0.059864793
1757748702145,4.654328,-6.253655,4.9440265,0.38973203,0.27122417,0.059864793
1757748702146,4.654328,-6.253655,4.9440265,0.38728857,0.31642818,0.073303826
1757748702164,3.976769,-5.602432,4.9200845,0.38728857,0.31642818,0.073303826
1757748702165,3.976769,-5.602432,4.9200845,0.42394048,0.31031954,0.06719518
1757748702185,3.6367924,-4.9919105,4.5441947,0.42394048,0.31031954,0.06719518
1757748702187,3.6367924,-4.9919105,4.5441947,0.51923543,0.23945917,0.058643065
1757748702204,3.41892,-4.3885717,4.050989,0.51923543,0.23945917,0.058643065
1757748702205,3.41892,-4.3885717,4.050989,0.61575216,0.17104226,0.052534413
1757748702224,3.2585084,-4.213795,3.6583402,0.61575216,0.17104226,0.052534413
1757748702225,3.2585084,-4.213795,3.6583402,0.5852089,0.05497787,0.028099801
1757748702244,3.2848446,-4.0414124,3.3734303,0.5852089,0.05497787,0.028099801
1757748702246,3.2848446,-4.0414124,3.3734303,0.50701815,-0.036651913,-0.002443461
1757748702264,2.8778305,-3.8402996,3.265691,0.50701815,-0.036651913,-0.002443461
1757748702266,2.8778305,-3.8402996,3.265691,0.35430184,-0.08674286,-0.02565634
1757748702287,2.6479871,-3.9911342,3.1196449,0.35430184,-0.08674286,-0.02565634
1757748702289,2.6479871,-3.9911342,3.1196449,0.16615535,-0.17104226,-0.059864793
1757748702305,2.5761611,-3.7205894,3.3518825,0.16615535,-0.17104226,-0.059864793
1757748702306,2.5761611,-3.7205894,3.3518825,0.15882497,-0.16371189,-0.08552113
1757748702325,2.1164744,-3.1723173,3.5170822,0.15882497,-0.16371189,-0.08552113
1757748702326,2.1164744,-3.1723173,3.5170822,0.21746802,-0.1160644,-0.07819075
1757748702343,1.8339585,-2.8395233,2.9951463,0.21746802,-0.1160644,-0.07819075
1757748702345,1.8339585,-2.8395233,2.9951463,0.2724459,-0.0061086523,-0.040317107
1757748702365,1.9512744,-2.1523874,2.96881,0.2724459,-0.0061086523,-0.040317107
1757748702366,1.9512744,-2.1523874,2.96881,0.40317106,0.13194689,0.012217305
1757748702385,2.336741,-1.958457,3.0597897,0.40317106,0.13194689,0.012217305
1757748702386,2.336741,-1.958457,3.0597897,0.3200934,0.2602286,0.105068825
1757748702404,2.6144683,-2.4636335,3.2824504,0.3200934,0.2602286,0.105068825
1757748702405,2.6144683,-2.4636335,3.2824504,0.12583824,0.34574974,0.172264
1757748702425,2.597709,-3.2393548,3.9671922,0.12583824,0.34574974,0.172264
1757748702426,2.597709,-3.2393548,3.9671922,0.040317107,0.38362336,0.19425514
1757748702442,2.6719291,-3.7349546,4.7141833,0.040317107,0.38362336,0.19425514
1757748702445,2.6719291,-3.7349546,4.7141833,0.015882496,0.36163223,0.20280726
1757748702464,2.873042,-4.1060557,5.473145,0.015882496,0.36163223,0.20280726
1757748702465,2.873042,-4.1060557,5.473145,-0.061086524,0.29565877,0.19303341
1757748702485,3.2273839,-4.3167458,6.217742,-0.061086524,0.29565877,0.19303341
1757748702486,3.2273839,-4.3167458,6.217742,-0.18936823,0.21135938,0.17715092
1757748702505,3.7014358,-6.1411276,6.8905125,-0.18936823,0.21135938,0.17715092
1757748702506,3.7014358,-6.1411276,6.8905125,-0.38362336,-0.007330383,0.095294975
1757748702524,4.220978,-6.5505357,6.6893997,-0.38362336,-0.007330383,0.095294975
1757748702526,4.220978,-6.5505357,6.6893997,-0.22724187,-0.14660765,0.012217305
1757748702544,4.5082817,-6.1243677,6.6367273,-0.22724187,-0.14660765,0.012217305
1757748702545,4.5082817,-6.1243677,6.6367273,-0.112399206,-0.22235495,-0.06963864
1757748702564,4.292804,-6.019023,6.8809357,-0.112399206,-0.22235495,-0.06963864
1757748702566,4.292804,-6.019023,6.8809357,-0.2284636,-0.21991149,-0.095294975
1757748702582,4.247314,-6.1411276,7.0940194,-0.2284636,-0.21991149,-0.095294975
1757748702583,4.247314,-6.1411276,7.0940194,-0.33964106,-0.20769419,-0.06841691
1757748702606,4.1706996,-6.361394,6.8641763,-0.33964106,-0.20769419,-0.06841691
1757748702607,4.1706996,-6.361394,6.8641763,-0.21013765,-0.19792034,-0.047647487
1757748702621,4.1611223,-5.8801594,6.4380083,-0.21013765,-0.19792034,-0.047647487
1757748702622,4.1611223,-5.8801594,6.4380083,0.081855945,-0.15149458,-0.028099801
1757748702639,4.3287168,-5.6766524,6.0597243,0.081855945,-0.15149458,-0.028099801
1757748702639,4.3287168,-5.6766524,6.0597243,0.1563815,-0.10140363,-0.012217305
1757748702660,4.6136265,-5.602432,6.0238113,0.1563815,-0.10140363,-0.012217305
1757748702660,4.6136265,-5.602432,6.0238113,0.12705997,-0.06719518,-0.014660766
1757748702680,4.3478703,-5.449203,5.872977,0.12705997,-0.06719518,-0.014660766
1757748702680,4.3478703,-5.449203,5.872977,-0.0720821,-0.118507855,-0.04153884
1757748702701,4.1515455,-5.451597,5.6551046,-0.0720821,-0.118507855,-0.04153884
1757748702701,4.1515455,-5.451597,5.6551046,-0.20525073,-0.18936823,-0.06719518
1757748702721,3.9743748,-5.3079453,5.5258174,-0.20525073,-0.18936823,-0.06719518
1757748702721,3.9743748,-5.3079453,5.5258174,-0.2968805,-0.24190263,-0.089186326
1757748702740,3.8762126,-5.140351,5.6431336,-0.2968805,-0.24190263,-0.089186326
1757748702741,3.8762126,-5.140351,5.6431336,-0.34574974,-0.2724459,-0.103847094
1757748702761,3.502717,-4.9224787,5.451597,-0.34574974,-0.2724459,-0.103847094
1757748702763,3.502717,-4.9224787,5.451597,-0.3921755,-0.28221974,-0.09040806
1757748702782,3.6655228,-4.948815,5.2385135,-0.3921755,-0.28221974,-0.09040806
1757748702783,3.6655228,-4.948815,5.2385135,-0.44959682,-0.3115413,-0.064751714
1757748702803,3.6822822,-5.2863975,4.6950297,-0.44959682,-0.3115413,-0.064751714
1757748702804,3.6822822,-5.2863975,4.6950297,-0.48991394,-0.32620203,-0.03176499
1757748702824,3.2369606,-5.3223104,4.4723687,-0.48991394,-0.32620203,-0.03176499
1757748702826,3.2369606,-5.3223104,4.4723687,-0.47036624,-0.31764993,-0.04153884
1757748702843,2.9352913,-4.8123455,3.8833952,-0.47036624,-0.31764993,-0.04153884
1757748702844,2.9352913,-4.8123455,3.8833952,-0.39461896,-0.23579398,-0.052534413
1757748702865,2.8921957,-4.1156325,3.5434184,-0.39461896,-0.23579398,-0.052534413
1757748702866,2.8921957,-4.1156325,3.5434184,-0.23579398,-0.12461651,-0.028099801
1757748702883,3.2154129,-3.5984852,3.490746,-0.23579398,-0.12461651,-0.028099801
1757748702884,3.2154129,-3.5984852,3.490746,-0.1600467,-0.058643065,0.008552114
