timestamp,ax,ay,az,gx,gy,gz
1757686899668,-1.541866,2.7365725,8.671799,-0.7305948,0.06352998,0.062308256
1757686899668,-1.541866,2.7365725,8.671799,-0.012217305,0.028099801,-0.007330383
1757686899668,-1.5562311,2.4660277,8.968679,-0.012217305,0.028099801,-0.007330383
1757686899668,-1.5562311,2.4660277,8.968679,0.6462954,-0.0012217305,0.089186326
1757686899681,-1.5682021,2.1021092,9.320627,0.6462954,-0.0012217305,0.089186326
1757686899681,-1.5682021,2.1021092,9.320627,-0.6462954,-0.089186326,0.007330383
1757686899700,-1.9153614,2.0853498,9.574412,-0.6462954,-0.089186326,0.007330383
1757686899700,-1.9153614,2.0853498,9.574412,-0.20158553,-0.07086037,0.15027285
1757686899721,-1.9369092,2.5115175,9.859323,-0.20158553,-0.07086037,0.15027285
1757686899722,-1.9369092,2.5115175,9.859323,-0.37384954,-0.04520403,0.23701571
1757686899741,-2.5761611,1.6759412,9.7803135,-0.37384954,-0.04520403,0.23701571
1757686899741,-2.5761611,1.6759412,9.7803135,-0.5448918,-0.23090707,0.14905111
1757686899761,-2.2361844,1.7741034,9.821015,-0.5448918,-0.23090707,0.14905111
1757686899761,-2.2361844,1.7741034,9.821015,-0.5571091,-0.4251622,0.09162979
1757686899781,-2.0805612,1.9009962,10.223241,-0.5571091,-0.4251622,0.09162979
1757686899781,-2.0805612,1.9009962,10.223241,-0.49602258,-0.45204028,-0.018325957
1757686899801,-2.1667526,2.0685902,10.517728,-0.49602258,-0.45204028,-0.018325957
1757686899802,-2.1667526,2.0685902,10.517728,-0.7244862,-0.59986967,-0.034208454
1757686899822,-2.3080103,1.5346833,10.527305,-0.7244862,-0.59986967,-0.034208454
1757686899822,-2.3080103,1.5346833,10.527305,-1.2730432,-0.7965683,-0.15149458
1757686899842,-1.1971009,1.1827357,11.465832,-1.2730432,-0.7965683,-0.15149458
1757686899843,-1.1971009,1.1827357,11.465832,-1.998751,-1.033584,-0.37751472
1757686899863,-1.6639702,-0.04070143,12.593501,-1.998751,-1.033584,-0.37751472
1757686899863,-1.6639702,-0.04070143,12.593501,-2.510656,-1.110553,-0.5155703
1757686899883,-2.1092918,-1.8124107,13.081918,-2.510656,-1.110553,-0.5155703
1757686899884,-2.1092918,-1.8124107,13.081918,-3.3292155,-1.3561208,-1.0751228
1757686899901,-1.8602947,-2.861071,12.672509,-3.3292155,-1.3561208,-1.0751228
1757686899902,-1.8602947,-2.861071,12.672509,-4.0671406,-1.6444492,-1.4831808
1757686899924,-0.6919243,-2.6791117,10.898406,-4.0671406,-1.6444492,-1.4831808
1757686899925,-0.6919243,-2.6791117,10.898406,-4.831944,-1.9205604,-1.9388863
1757686899944,-0.19153613,-4.7620673,10.548853,-4.831944,-1.9205604,-1.9388863
1757686899945,-0.19153613,-4.7620673,10.548853,-5.4562483,-1.9853121,-2.4495697
1757686899964,0.60812724,-6.069301,9.272743,-5.4562483,-1.9853121,-2.4495697
1757686899965,0.60812724,-6.069301,9.272743,-6.34689,-1.9743165,-3.2058208
1757686899983,1.5227122,-5.659893,7.2209125,-6.34689,-1.9743165,-3.2058208
1757686899984,1.5227122,-5.659893,7.2209125,-6.9846334,-1.7959439,-3.813021
1757686900003,2.4157495,-5.9400144,5.245696,-6.9846334,-1.7959439,-3.813021
1757686900005,2.4157495,-5.9400144,5.245696,-6.423859,-1.428203,-4.15144
1757686900023,2.7820623,-5.020641,4.3861775,-6.423859,-1.428203,-4.15144
1757686900024,2.7820623,-5.020641,4.3861775,-5.7091465,-0.86620694,-4.3676863
1757686900044,2.7629087,-2.5737667,3.1483753,-5.7091465,-0.86620694,-4.3676863
1757686900045,2.7629087,-2.5737667,3.1483753,-5.508783,-0.17837265,-4.338365
1757686900063,2.1667526,-3.2345665,3.7588966,-5.508783,-0.17837265,-4.338365
1757686900064,2.1667526,-3.2345665,3.7588966,-5.4122663,0.48502702,-4.0634756
1757686900083,1.6352397,-4.429273,4.1371803,-5.4122663,0.48502702,-4.0634756
1757686900084,1.6352397,-4.429273,4.1371803,-5.489235,1.0054842,-3.9278636
1757686900103,2.6288335,-5.5162406,3.1507695,-5.489235,1.0054842,-3.9278636
1757686900104,2.6288335,-5.5162406,3.1507695,-4.747645,1.3329079,-3.6187658
1757686900124,4.7644615,-6.2584434,2.7964275,-4.747645,1.3329079,-3.6187658
1757686900125,4.7644615,-6.2584434,2.7964275,-3.4782667,1.3793337,-3.2876768
1757686900143,5.1379566,-6.715736,3.8474822,-3.4782667,1.3793337,-3.2876768
1757686900145,5.1379566,-6.715736,3.8474822,-2.1881194,1.4184291,-3.097087
1757686900165,2.7006595,-5.559336,4.3718123,-2.1881194,1.4184291,-3.097087
1757686900166,2.7006595,-5.559336,4.3718123,-1.5247196,1.6041322,-2.8050933
1757686900183,1.3431472,-5.231331,5.961562,-1.5247196,1.6041322,-2.8050933
1757686900184,1.3431472,-5.231331,5.961562,-1.1814134,1.5039502,-2.4178047
1757686900202,4.3287168,-6.31351,6.117185,-1.1814134,1.5039502,-2.4178047
1757686900203,4.3287168,-6.31351,6.117185,-0.94806284,0.98715824,-2.1380284
1757686900222,7.405266,-7.091625,5.7604494,-0.94806284,0.98715824,-2.1380284
1757686900223,7.405266,-7.091625,5.7604494,-0.64751714,0.5546656,-1.8081611
1757686900243,7.177817,-4.817134,8.487445,-0.64751714,0.5546656,-1.8081611
1757686900244,7.177817,-4.817134,8.487445,0.02565634,0.28588495,-0.9969321
1757686900264,6.0022635,-2.0901382,11.59033,0.02565634,0.28588495,-0.9969321
1757686900265,6.0022635,-2.0901382,11.59033,-0.86254174,0.29443705,-0.48502702
1757686900284,8.0445175,-5.997475,10.251971,-0.86254174,0.29443705,-0.48502702
1757686900285,8.0445175,-5.997475,10.251971,-1.7214183,-0.82833326,-0.112399206
1757686900304,10.498574,-6.445191,5.1642933,-1.7214183,-0.82833326,-0.112399206
1757686900306,10.498574,-6.445191,5.1642933,-2.4226916,-1.4110987,0.11484267
1757686900325,11.092337,-7.6015906,2.6623523,-2.4226916,-1.4110987,0.11484267
1757686900326,11.092337,-7.6015906,2.6623523,-1.5210545,-1.2021828,0.5644395
1757686900343,10.666168,-7.5704656,2.5833437,-1.5210545,-1.2021828,0.5644395
1757686900345,10.666168,-7.5704656,2.5833437,-0.4642576,-0.8368854,0.63041294
1757686900365,9.876082,-6.045359,3.9624038,-0.4642576,-0.8368854,0.63041294
1757686900366,9.876082,-6.045359,3.9624038,0.8356637,-0.5216789,0.73548174
1757686900384,9.390059,-4.55856,4.3406878,0.8356637,-0.5216789,0.73548174
1757686900385,9.390059,-4.55856,4.3406878,1.4159856,-0.3042109,0.9737192
1757686900405,8.42759,-4.2305546,4.537012,1.4159856,-0.3042109,0.9737192
1757686900406,8.42759,-4.2305546,4.537012,1.2583824,-0.15760323,0.657291
1757686900423,6.9479733,-2.554613,3.98874,1.2583824,-0.15760323,0.657291
1757686900424,6.9479733,-2.554613,3.98874,0.8332202,0.118507855,0.3371976
1757686900443,7.129933,-1.9129672,3.5577838,0.8332202,0.118507855,0.3371976
1757686900445,7.129933,-1.9129672,3.5577838,0.5326745,0.095294975,0.27122417
1757686900464,7.091625,-3.2010477,3.5482068,0.5326745,0.095294975,0.27122417
1757686900465,7.091625,-3.2010477,3.5482068,0.3640757,0.22968534,0.089186326
1757686900484,6.373365,-4.390966,3.406949,0.3640757,0.22968534,0.089186326
1757686900486,6.373365,-4.390966,3.406949,0.34330627,0.48258355,-0.057421334
1757686900503,6.0980315,-4.6351743,3.6846764,0.34330627,0.48258355,-0.057421334
1757686900505,6.0980315,-4.6351743,3.6846764,0.3494149,0.55955255,-0.17715092
1757686900525,5.9280434,-4.285621,4.027047,0.3494149,0.55955255,-0.17715092
1757686900527,5.9280434,-4.285621,4.027047,0.32620203,0.58032197,-0.21991149
1757686900542,5.556942,-4.1060557,4.9919105,0.32620203,0.58032197,-0.21991149
1757686900543,5.556942,-4.1060557,4.9919105,0.014660766,0.5021312,-0.20158553
1757686900562,6.0740895,-4.996699,5.341464,0.014660766,0.5021312,-0.20158553
1757686900563,6.0740895,-4.996699,5.341464,-0.42638394,0.23823744,-0.18325958
1757686900581,7.2113357,-5.932832,5.6096144,-0.42638394,0.23823744,-0.18325958
1757686900582,7.2113357,-5.932832,5.6096144,-0.77457714,-0.06841691,-0.18448131
1757686900601,5.9519854,-7.680599,4.4915223,-0.77457714,-0.06841691,-0.18448131
1757686900602,5.9519854,-7.680599,4.4915223,-0.84788096,-0.07452556,-0.1441642
1757686900622,4.7261543,-8.123527,4.0581717,-0.84788096,-0.07452556,-0.1441642
1757686900623,4.7261543,-8.123527,4.0581717,-0.4569272,-0.047647487,-0.13194689
1757686900642,4.6160207,-7.0820484,3.5913026,-0.4569272,-0.047647487,-0.13194689
1757686900643,4.6160207,-7.0820484,3.5913026,-0.05375614,-0.05497787,-0.15882497
1757686900662,5.094861,-6.205771,3.6343982,-0.05375614,-0.05497787,-0.15882497
1757686900663,5.094861,-6.205771,3.6343982,0.23945917,0.0036651916,-0.14660765
1757686900683,5.257667,-5.671864,3.4979286,0.23945917,0.0036651916,-0.14660765
1757686900685,5.257667,-5.671864,3.4979286,0.27122417,0.081855945,-0.05375614
1757686900703,5.7604494,-5.887342,3.3135753,0.27122417,0.081855945,-0.05375614
1757686900704,5.7604494,-5.887342,3.3135753,0.16493362,0.073303826,0.036651913
1757686900724,6.2129536,-5.8681884,3.1627405,0.16493362,0.073303826,0.036651913
1757686900725,6.2129536,-5.8681884,3.1627405,0.018325957,0.11484267,0.14905111
1757686900745,5.877765,-5.9783216,3.4332852,0.018325957,0.11484267,0.14905111
1757686900746,5.877765,-5.9783216,3.4332852,-0.02443461,0.20769419,0.2602286
1757686900761,5.4085016,-5.935226,3.3327289,-0.02443461,0.20769419,0.2602286
1757686900761,5.4085016,-5.935226,3.3327289,-0.02565634,0.21624629,0.31520647
1757686900780,4.4603977,-6.129156,3.8498764,-0.02565634,0.21624629,0.31520647
1757686900780,4.4603977,-6.129156,3.8498764,0.21502456,0.25167647,0.31887165
1757686900800,3.7541082,-6.208165,4.209007,0.21502456,0.25167647,0.31887165
1757686900801,3.7541082,-6.208165,4.209007,0.4886922,0.2919936,0.24801129
1757686900820,3.5553896,-5.995081,4.177882,0.4886922,0.2919936,0.24801129
1757686900821,3.5553896,-5.995081,4.177882,0.6731735,0.20647246,0.1600467
1757686900840,4.3263226,-5.9687448,4.000711,0.6731735,0.20647246,0.1600467
1757686900841,4.3263226,-5.9687448,4.000711,0.5717699,0.029321533,0.11728613
1757686900860,4.8482585,-6.3470287,4.3598413,0.5717699,0.029321533,0.11728613
1757686900860,4.8482585,-6.3470287,4.3598413,0.11484267,-0.17715092,0.10873401
1757686900880,5.12838,-6.2752028,3.8402996,0.11484267,-0.17715092,0.10873401
1757686900881,5.12838,-6.2752028,3.8402996,-0.57910025,-0.3213151,0.035430185
1757686900899,5.233725,-6.4188547,4.0821137,-0.57910025,-0.3213151,0.035430185
1757686900900,5.233725,-6.4188547,4.0821137,-0.82344633,-0.39461896,-0.03176499
1757686900920,5.5282116,-6.090849,3.4931402,-0.82344633,-0.39461896,-0.03176499
1757686900921,5.5282116,-6.090849,3.4931402,-0.88331115,-0.42760566,-0.10140363
1757686900939,5.7963624,-5.825093,3.2249897,-0.88331115,-0.42760566,-0.10140363
1757686900940,5.7963624,-5.825093,3.2249897,-0.6291912,-0.47036624,-0.15149458
1757686900960,6.117185,-3.8426938,3.3925838,-0.6291912,-0.47036624,-0.15149458
1757686900961,6.117185,-3.8426938,3.3925838,-0.33841935,-0.11728613,-0.17592919
1757686900979,5.8083334,-2.9400797,3.4332852,-0.33841935,-0.11728613,-0.17592919
1757686900979,5.8083334,-2.9400797,3.4332852,-0.32375857,0.26145032,-0.12461651
1757686901000,5.473145,-2.7844565,2.80361,-0.32375857,0.26145032,-0.12461651
1757686901001,5.473145,-2.7844565,2.80361,-0.49357912,0.5412266,0.05131268
1757686901019,4.88896,-3.7134068,2.1284454,-0.49357912,0.5412266,0.05131268
1757686901020,4.88896,-3.7134068,2.1284454,-0.43127087,0.93584555,0.1282817
1757686901040,5.291186,-3.6463692,1.4867992,-0.43127087,0.93584555,0.1282817
1757686901040,5.291186,-3.6463692,1.4867992,-0.2565634,0.9053023,-0.0061086523
1757686901059,5.889736,-2.920926,2.1380222,-0.2565634,0.9053023,-0.0061086523
1757686901060,5.889736,-2.920926,2.1380222,0.013439035,0.25289822,-0.030543262
1757686901080,5.1020436,-2.372654,2.2888567,0.013439035,0.25289822,-0.030543262
1757686901081,5.1020436,-2.372654,2.2888567,-0.09285152,0.48747048,-0.09285152
1757686901099,4.8027687,-2.4708161,2.6240451,-0.09285152,0.48747048,-0.09285152
1757686901100,4.8027687,-2.4708161,2.6240451,-0.51923543,0.26511553,-0.009773844
1757686901120,4.7309427,-3.6966474,2.3822308,-0.51923543,0.26511553,-0.009773844
1757686901121,4.7309427,-3.6966474,2.3822308,-0.9053023,0.21991149,0.073303826
1757686901139,4.417302,-5.3318872,2.5833437,-0.9053023,0.21991149,0.073303826
1757686901140,4.417302,-5.3318872,2.5833437,-0.8381071,0.22235495,0.036651913
1757686901160,6.227319,-4.6519337,2.7246015,-0.8381071,0.22235495,0.036651913
1757686901160,6.227319,-4.6519337,2.7246015,-0.56321776,0.12339478,-0.09040806
1757686901179,8.3150625,-4.4244847,2.3702598,-0.56321776,0.12339478,-0.09040806
1757686901180,8.3150625,-4.4244847,2.3702598,-0.3481932,0.31031954,-0.23579398
1757686901200,7.386112,-4.8578353,3.3207579,-0.3481932,0.31031954,-0.23579398
1757686901200,7.386112,-4.8578353,3.3207579,-0.25411993,0.45204028,-0.3652974
1757686901221,4.6232033,-5.1810527,3.3183637,-0.25411993,0.45204028,-0.3652974
1757686901221,4.6232033,-5.1810527,3.3183637,-0.28221974,0.59498274,-0.41050145
1757686901241,3.6846764,-5.9041014,4.1012673,-0.28221974,0.59498274,-0.41050145
1757686901242,3.6846764,-5.9041014,4.1012673,0.19792034,0.7892379,-0.50701815
1757686901261,4.7046065,-5.925649,3.8043866,0.19792034,0.7892379,-0.50701815
1757686901262,4.7046065,-5.925649,3.8043866,0.43127087,0.43249258,-0.71593404
1757686901281,4.721366,-4.7548847,4.465186,0.43127087,0.43249258,-0.71593404
1757686901282,4.721366,-4.7548847,4.465186,0.95905846,0.1600467,-0.77946407
1757686901301,5.068525,-3.4715924,3.9384618,0.95905846,0.1600467,-0.77946407
1757686901302,5.068525,-3.4715924,3.9384618,0.91996306,0.3359759,-0.4813618
1757686901324,7.896077,-5.78918,4.9823337,0.91996306,0.3359759,-0.4813618
1757686901325,7.896077,-5.78918,4.9823337,-0.29443705,0.23823744,-0.29077184
1757686901341,6.6175733,-7.9870567,5.4180784,-0.29443705,0.23823744,-0.29077184
1757686901342,6.6175733,-7.9870567,5.4180784,-1.2388347,0.6072,-0.056199603
1757686901361,5.4085016,-10.673351,3.7612908,-1.2388347,0.6072,-0.056199603
1757686901363,5.4085016,-10.673351,3.7612908,-1.5613716,0.38362336,-0.030543262
1757686901381,6.3111157,-10.69011,2.042254,-1.5613716,0.38362336,-0.030543262
1757686901383,6.3111157,-10.69011,2.042254,-0.9089675,-0.009773844,-0.12583824
1757686901402,7.9631147,-8.698134,3.0430303,-0.9089675,-0.009773844,-0.12583824
1757686901403,7.9631147,-8.698134,3.0430303,0.31764993,-0.111177474,-0.35063666
1757686901422,7.153875,-7.07726,4.537012,0.31764993,-0.111177474,-0.35063666
1757686901424,7.153875,-7.07726,4.537012,0.79290307,0.26389378,-0.10873401
1757686901442,7.204153,-7.8146744,4.7668557,0.79290307,0.26389378,-0.10873401
1757686901444,7.204153,-7.8146744,4.7668557,0.58276546,0.16249016,0.087964594
1757686901461,9.847352,-7.9128366,4.972757,0.58276546,0.16249016,0.087964594
1757686901462,9.847352,-7.9128366,4.972757,0.36163223,-0.035430185,0.073303826
1757686901480,12.785037,-8.635885,5.741296,0.36163223,-0.035430185,0.073303826
1757686901481,12.785037,-8.635885,5.741296,0.06963864,-0.17348573,0.12583824
1757686901501,11.049241,-11.295844,5.509058,0.06963864,-0.17348573,0.12583824
1757686901502,11.049241,-11.295844,5.509058,-0.2687807,-0.02565634,0.23823744
1757686901522,11.664551,-11.892,5.4444146,-0.2687807,-0.02565634,0.23823744
1757686901523,11.664551,-11.892,5.4444146,0.061086524,-0.17592919,0.17592919
1757686901542,14.360422,-11.69807,5.671864,0.061086524,-0.17592919,0.17592919
1757686901543,14.360422,-11.69807,5.671864,0.1685988,-0.25778514,-0.013439035
1757686901562,10.893618,-12.603078,6.634333,0.1685988,-0.25778514,-0.013439035
1757686901563,10.893618,-12.603078,6.634333,-0.05375614,0.07452556,0.04642576
1757686901582,8.111555,-12.538434,7.165846,-0.05375614,0.07452556,0.04642576
1757686901583,8.111555,-12.538434,7.165846,-0.37140608,0.030543262,-0.010995574
1757686901601,11.659762,-11.774684,7.589619,-0.37140608,0.030543262,-0.010995574
1757686901602,11.659762,-11.774684,7.589619,-0.48747048,-0.37507126,-0.22479841
1757686901621,11.741165,-11.599907,6.8282633,-0.48747048,-0.37507126,-0.22479841
1757686901623,11.741165,-11.599907,6.8282633,-0.5571091,-0.3494149,-0.16615535
1757686901642,9.962274,-11.719617,5.195418,-0.5571091,-0.3494149,-0.16615535
1757686901644,9.962274,-11.719617,5.195418,-0.47891834,-0.2602286,-0.035430185
1757686901661,11.133038,-11.228806,4.72376,-0.47891834,-0.2602286,-0.035430185
1757686901663,11.133038,-11.228806,4.72376,-0.21868975,-0.26267207,-0.06841691
1757686901681,12.006922,-10.287885,5.681441,-0.21868975,-0.26267207,-0.06841691
1757686901683,12.006922,-10.287885,5.681441,0.061086524,0.07696902,0.0061086523
1757686901701,10.326192,-10.283096,5.805939,0.061086524,0.07696902,0.0061086523
1757686901702,10.326192,-10.283096,5.805939,0.057421334,0.23335053,0.04886922
1757686901722,9.65821,-9.41879,5.3821654,0.057421334,0.23335053,0.04886922
1757686901723,9.65821,-9.41879,5.3821654,-0.028099801,0.15271631,-0.0012217305
1757686901741,9.504981,-9.208099,4.3861775,-0.028099801,0.15271631,-0.0012217305
1757686901744,9.504981,-9.208099,4.3861775,-0.19303341,0.10140363,0.0
1757686901762,9.672575,-10.187328,4.120421,-0.19303341,0.10140363,0.0
1757686901763,9.672575,-10.187328,4.120421,-0.2565634,0.14905111,0.007330383
1757686901781,9.181764,-9.91439,4.06296,-0.2565634,0.14905111,0.007330383
1757686901782,9.181764,-9.91439,4.06296,-0.09407325,0.22357668,0.0012217305
1757686901802,8.710106,-9.076419,4.132392,-0.09407325,0.22357668,0.0012217305
1757686901803,8.710106,-9.076419,4.132392,0.037873644,0.20769419,-0.004886922
1757686901822,8.350976,-8.7532015,4.189853,0.037873644,0.20769419,-0.004886922
1757686901823,8.350976,-8.7532015,4.189853,0.073303826,0.21135938,0.004886922
1757686901839,7.896077,-8.7292595,4.048595,0.073303826,0.21135938,0.004886922
1757686901840,7.896077,-8.7292595,4.048595,0.18081611,0.20525073,0.05131268
1757686901858,8.255207,-7.599196,3.4141316,0.18081611,0.20525073,0.05131268
1757686901859,8.255207,-7.599196,3.4141316,0.64996064,0.10751228,0.037873644
1757686901881,8.401254,-5.638345,3.0430303,0.64996064,0.10751228,0.037873644
1757686901882,8.401254,-5.638345,3.0430303,0.79779,0.14905111,0.09407325
1757686901901,6.9264255,-3.5338416,3.3279405,0.79779,0.14905111,0.09407325
1757686901902,6.9264255,-3.5338416,3.3279405,0.49846604,0.35063666,0.27488935
1757686901922,5.604826,-4.0054994,3.7828386,0.49846604,0.35063666,0.27488935
1757686901923,5.604826,-4.0054994,3.7828386,0.1563815,0.3005457,0.48747048
1757686901941,4.7620673,-6.4427967,3.892972,0.1563815,0.3005457,0.48747048
1757686901942,4.7620673,-6.4427967,3.892972,0.17592919,0.062308256,0.56077427
1757686901961,3.9576154,-6.3230867,2.72939,0.17592919,0.062308256,0.56077427
1757686901963,3.9576154,-6.3230867,2.72939,0.49846604,-0.19181168,0.43371433
1757686901980,3.4452562,-4.4101195,2.96881,0.49846604,-0.19181168,0.43371433
1757686901981,3.4452562,-4.4101195,2.96881,0.8735373,-0.32498032,0.2846632
1757686902001,3.1124623,-3.205836,2.755726,0.8735373,-0.32498032,0.2846632
1757686902002,3.1124623,-3.205836,2.755726,0.9798279,-0.2284636,0.15760323
1757686902021,2.932897,-3.1148565,2.7246015,0.9798279,-0.2284636,0.15760323
1757686902022,2.932897,-3.1148565,2.7246015,0.98715824,0.017104227,0.111177474
1757686902041,2.9616275,-2.4612393,2.243367,0.98715824,0.017104227,0.111177474
1757686902042,2.9616275,-2.4612393,2.243367,0.9932669,0.13194689,0.105068825
1757686902061,2.956839,-2.0254946,2.2361844,0.9932669,0.13194689,0.105068825
1757686902062,2.956839,-2.0254946,2.2361844,0.9944886,0.23701571,0.10262536
1757686902081,2.693477,-1.3862427,2.1691468,0.9944886,0.23701571,0.10262536
1757686902082,2.693477,-1.3862427,2.1691468,0.88208944,0.32375857,0.08307768
1757686902100,2.4779987,-1.0007763,2.2529438,0.88208944,0.32375857,0.08307768
1757686902101,2.4779987,-1.0007763,2.2529438,0.77457714,0.35430184,0.0842994
1757686902122,2.2361844,-0.8595184,2.1380222,0.77457714,0.35430184,0.0842994
1757686902123,2.2361844,-0.8595184,2.1380222,0.6047566,0.36774087,0.10262536
1757686902140,2.4516625,-1.0055647,1.946486,0.6047566,0.36774087,0.10262536
1757686902142,2.4516625,-1.0055647,1.946486,0.40439278,0.36041048,0.11362094
1757686902161,2.6024973,-1.7046716,2.111686,0.40439278,0.36041048,0.11362094
1757686902162,2.6024973,-1.7046716,2.111686,0.3213151,0.40683624,0.14782938
1757686902179,2.6599581,-2.1021092,2.504335,0.3213151,0.40683624,0.14782938
1757686902180,2.6599581,-2.1021092,2.504335,0.29810223,0.42394048,0.16982053
1757686902201,3.323152,-2.4420857,2.9592333,0.29810223,0.42394048,0.16982053
1757686902202,3.323152,-2.4420857,2.9592333,0.24678956,0.37995818,0.15760323
1757686902221,4.2904096,-3.13401,4.237737,0.24678956,0.37995818,0.15760323
1757686902222,4.2904096,-3.13401,4.237737,0.14294247,0.41783184,0.16371189
1757686902241,4.7285485,-3.833117,5.159505,0.14294247,0.41783184,0.16371189
1757686902242,4.7285485,-3.833117,5.159505,0.118507855,0.38240165,0.18081611
1757686902261,5.2121773,-4.4196963,5.741296,0.118507855,0.38240165,0.18081611
1757686902262,5.2121773,-4.4196963,5.741296,0.056199603,0.20891592,0.14172074
1757686902280,5.4061074,-4.2664676,6.205771,0.056199603,0.20891592,0.14172074
1757686902281,5.4061074,-4.2664676,6.205771,-0.0842994,-0.034208454,0.12339478
1757686902300,5.267244,-4.156334,6.217742,-0.0842994,-0.034208454,0.12339478
1757686902302,5.267244,-4.156334,6.217742,-0.32375857,-0.25900686,0.07941248
1757686902321,5.509058,-4.663905,5.861006,-0.32375857,-0.25900686,0.07941248
1757686902322,5.509058,-4.663905,5.861006,-0.50335294,-0.4605924,-0.009773844
1757686902340,5.896919,-5.0613422,5.647922,-0.50335294,-0.4605924,-0.009773844
1757686902341,5.896919,-5.0613422,5.647922,-0.49968776,-0.59498274,-0.06352998
1757686902361,5.911284,-5.1116204,5.509058,-0.49968776,-0.59498274,-0.06352998
1757686902362,5.911284,-5.1116204,5.509058,-0.3885103,-0.5571091,-0.06841691
1757686902380,5.243302,-5.1020436,5.044583,-0.3885103,-0.5571091,-0.06841691
1757686902381,5.243302,-5.1020436,5.044583,-0.22479841,-0.42394048,-0.12339478
1757686902400,4.9296613,-4.771644,4.819528,-0.22479841,-0.42394048,-0.12339478
1757686902401,4.9296613,-4.771644,4.819528,-0.0842994,-0.35308012,-0.16249016
1757686902420,4.572925,-4.5202527,4.5082817,-0.0842994,-0.35308012,-0.16249016
1757686902421,4.572925,-4.5202527,4.5082817,0.081855945,-0.2968805,-0.21991149
1757686902440,4.51307,-3.3446999,4.2425256,0.081855945,-0.2968805,-0.21991149
1757686902442,4.51307,-3.3446999,4.2425256,0.13683382,-0.24923302,-0.25534168
1757686902459,4.271256,-2.516306,3.6463692,0.13683382,-0.24923302,-0.25534168
1757686902461,4.271256,-2.516306,3.6463692,0.105068825,-0.17348573,-0.2321288
1757686902480,3.7469256,-3.4620156,3.1651347,0.105068825,-0.17348573,-0.2321288
1757686902481,3.7469256,-3.4620156,3.1651347,0.3213151,-0.07452556,-0.2125811
1757686902499,2.9281087,-3.8953662,3.3518825,0.3213151,-0.07452556,-0.2125811
1757686902501,2.9281087,-3.8953662,3.3518825,0.8014552,-0.04886922,-0.19425514
1757686902521,2.8419175,-1.9728222,3.620033,0.8014552,-0.04886922,-0.19425514
1757686902522,2.8419175,-1.9728222,3.620033,0.9969321,-0.1282817,-0.14660765
1757686902540,2.906561,-0.9935937,3.359065,0.9969321,-0.1282817,-0.14660765
1757686902542,2.906561,-0.9935937,3.359065,0.99082345,-0.2125811,-0.11484267
1757686902561,3.0358477,-1.1324574,2.7724855,0.99082345,-0.2125811,-0.11484267
1757686902562,3.0358477,-1.1324574,2.7724855,0.5558874,-0.25778514,-0.05131268
1757686902580,3.0310593,-1.721431,2.1188686,0.5558874,-0.25778514,-0.05131268
1757686902582,3.0310593,-1.721431,2.1188686,0.3115413,-0.2321288,0.036651913
1757686902599,3.1842883,-2.4181437,2.5809495,0.3115413,-0.2321288,0.036651913
1757686902601,3.1842883,-2.4181437,2.5809495,0.13683382,-0.16737708,0.0842994
1757686902620,3.5170822,-2.8898015,3.1914709,0.13683382,-0.16737708,0.0842994
1757686902622,3.5170822,-2.8898015,3.1914709,0.047647487,-0.105068825,0.13805555
1757686902641,3.9097314,-3.4524388,4.173094,0.047647487,-0.105068825,0.13805555
1757686902642,3.9097314,-3.4524388,4.173094,0.02076942,-0.07574729,0.16493362
1757686902660,4.8243165,-3.775656,4.55856,0.02076942,-0.07574729,0.16493362
1757686902661,4.8243165,-3.775656,4.55856,-0.19792034,-0.13561209,0.15271631
1757686902681,5.686229,-4.6710877,4.9823337,-0.19792034,-0.13561209,0.15271631
1757686902682,5.686229,-4.6710877,4.9823337,-0.41538838,-0.15515977,0.1282817
1757686902699,6.3589997,-5.533,4.831499,-0.41538838,-0.15515977,0.1282817
1757686902700,6.3589997,-5.533,4.831499,-0.6206391,-0.10262536,0.028099801
1757686902721,6.3302693,-5.681441,4.7261543,-0.6206391,-0.10262536,0.028099801
1757686902723,6.3302693,-5.681441,4.7261543,-0.60231316,-0.017104227,-0.032986723
1757686902738,6.3829417,-5.5617304,4.999093,-0.60231316,-0.017104227,-0.032986723
1757686902739,6.3829417,-5.5617304,4.999093,-0.32498032,0.009773844,-0.06719518
1757686902759,7.067683,-5.0014873,5.2744265,-0.32498032,0.009773844,-0.06719518
1757686902761,7.067683,-5.0014873,5.2744265,-0.2125811,0.019547688,-0.062308256
1757686902780,7.237672,-5.0757074,5.6431336,-0.2125811,0.019547688,-0.062308256
1757686902781,7.237672,-5.0757074,5.6431336,-0.20280726,0.12339478,0.014660766
1757686902800,7.0485296,-5.628768,5.805939,-0.20280726,0.12339478,0.014660766
1757686902801,7.0485296,-5.628768,5.805939,-0.37507126,0.16982053,0.05009095
1757686902818,7.371747,-7.338228,5.755661,-0.37507126,0.16982053,0.05009095
1757686902820,7.371747,-7.338228,5.755661,-0.40194935,0.14294247,0.015882496
1757686902840,8.145074,-8.875306,5.777209,-0.40194935,0.14294247,0.015882496
1757686902841,8.145074,-8.875306,5.777209,-0.0720821,0.09040806,-0.06841691
1757686902859,8.248025,-7.93199,6.591237,-0.0720821,0.09040806,-0.06841691
1757686902861,8.248025,-7.93199,6.591237,0.31642818,0.056199603,-0.043982297
1757686902880,7.9224133,-6.5984197,7.1155677,0.31642818,0.056199603,-0.043982297
1757686902881,7.9224133,-6.5984197,7.1155677,0.22235495,0.043982297,0.02687807
1757686902898,8.465898,-7.201759,6.9264255,0.22235495,0.043982297,0.02687807
1757686902899,8.465898,-7.201759,6.9264255,-0.21135938,-0.012217305,-0.037873644
1757686902920,8.983045,-9.038112,6.5457473,-0.21135938,-0.012217305,-0.037873644
1757686902922,8.983045,-9.038112,6.5457473,-0.49846604,0.087964594,-0.095294975
1757686902939,9.114726,-9.6845455,7.201759,-0.49846604,0.087964594,-0.095294975
1757686902941,9.114726,-9.6845455,7.201759,-0.21624629,0.0720821,-0.12705997
1757686902960,10.742783,-8.863335,8.030152,-0.21624629,0.0720821,-0.12705997
1757686902961,10.742783,-8.863335,8.030152,-0.061086524,-0.096516706,-0.111177474
1757686902977,11.513716,-9.224859,8.655039,-0.061086524,-0.096516706,-0.111177474
1757686902979,11.513716,-9.224859,8.655039,-0.312763,-0.040317107,-0.1160644
1757686902998,10.364499,-10.608707,8.3821,-0.312763,-0.040317107,-0.1160644
1757686903000,10.364499,-10.608707,8.3821,-0.70005155,0.1282817,-0.089186326
1757686903017,9.828198,-12.3516865,7.9463553,-0.70005155,0.1282817,-0.089186326
1757686903019,9.828198,-12.3516865,7.9463553,-0.52412236,0.037873644,-0.1441642
1757686903039,10.565612,-11.195287,7.989451,-0.52412236,0.037873644,-0.1441642
1757686903041,10.565612,-11.195287,7.989451,0.04642576,-0.13194689,-0.204029
1757686903058,10.407595,-10.007763,8.082825,0.04642576,-0.13194689,-0.204029
1757686903059,10.407595,-10.007763,8.082825,0.36163223,-0.09773844,-0.19058995
1757686903079,9.334992,-9.665392,8.255207,0.36163223,-0.09773844,-0.19058995
1757686903081,9.334992,-9.665392,8.255207,0.4654793,-0.05497787,-0.19181168
1757686903098,9.392453,-9.526528,8.149862,0.4654793,-0.05497787,-0.19181168
1757686903099,9.392453,-9.526528,8.149862,0.5864306,-0.14538592,-0.12950343
1757686903119,10.498574,-9.557653,7.5680714,0.5864306,-0.14538592,-0.12950343
1757686903120,10.498574,-9.557653,7.5680714,0.7147123,-0.2406809,-0.0036651916
1757686903138,10.522516,-9.198523,7.21373,0.7147123,-0.2406809,-0.0036651916
1757686903139,10.522516,-9.198523,7.21373,0.6988298,-0.12705997,0.02443461
1757686903159,9.835381,-8.322245,6.6486983,0.6988298,-0.12705997,0.02443461
1757686903159,9.835381,-8.322245,6.6486983,0.6792821,-0.043982297,0.052534413
1757686903177,9.495404,-8.499416,6.8809357,0.6792821,-0.043982297,0.052534413
1757686903178,9.495404,-8.499416,6.8809357,0.8038987,-0.012217305,0.06841691
1757686903199,9.205706,-8.250419,7.314286,0.8038987,-0.012217305,0.06841691
1757686903201,9.205706,-8.250419,7.314286,0.956615,-0.095294975,0.042760566
1757686903218,9.818622,-6.9503675,6.9240313,0.956615,-0.095294975,0.042760566
1757686903220,9.818622,-6.9503675,6.9240313,0.85154617,-0.16371189,-0.007330383
1757686903238,9.610326,-6.655881,7.1275387,0.85154617,-0.16371189,-0.007330383
1757686903240,9.610326,-6.655881,7.1275387,0.5375614,-0.04642576,-0.02565634
1757686903259,9.040505,-7.431602,6.943185,0.5375614,-0.04642576,-0.02565634
1757686903260,9.040505,-7.431602,6.943185,0.13805555,0.028099801,-0.057421334
1757686903279,9.002198,-7.776367,6.8665705,0.13805555,0.028099801,-0.057421334
1757686903281,9.002198,-7.776367,6.8665705,0.012217305,-0.04153884,-0.087964594
1757686903299,9.61272,-6.361394,6.4619503,0.012217305,-0.04153884,-0.087964594
1757686903300,9.61272,-6.361394,6.4619503,0.13805555,-0.13805555,-0.07819075
1757686903320,9.188946,-5.6096144,6.6965823,0.13805555,-0.13805555,-0.07819075
1757686903321,9.188946,-5.6096144,6.6965823,0.007330383,0.064751714,-0.058643065
1757686903339,8.39886,-6.244078,7.019799,0.007330383,0.064751714,-0.058643065
1757686903340,8.39886,-6.244078,7.019799,-0.028099801,0.27977628,-0.04153884
1757686903359,7.477092,-6.6606693,7.132327,-0.028099801,0.27977628,-0.04153884
1757686903360,7.477092,-6.6606693,7.132327,0.087964594,0.3555236,-0.07819075
1757686903378,6.6510925,-5.961562,6.2943563,0.087964594,0.3555236,-0.07819075
1757686903379,6.6510925,-5.961562,6.2943563,0.3286455,0.30543262,-0.11728613
1757686903399,6.5122285,-4.43885,5.2480903,0.3286455,0.30543262,-0.11728613
1757686903400,6.5122285,-4.43885,5.2480903,0.48502702,0.2284636,-0.17348573
1757686903417,6.133945,-3.3782187,4.8602295,0.48502702,0.2284636,-0.17348573
1757686903418,6.133945,-3.3782187,4.8602295,0.46181414,0.26145032,-0.15515977
1757686903438,5.243302,-2.8323407,4.654328,0.46181414,0.26145032,-0.15515977
1757686903439,5.243302,-2.8323407,4.654328,0.28099802,0.35796702,-0.13561209
1757686903457,4.498705,-2.944868,4.687847,0.28099802,0.35796702,-0.13561209
1757686903458,4.498705,-2.944868,4.687847,0.07086037,0.37751472,-0.14294247
1757686903477,3.311181,-3.323152,4.1659107,0.07086037,0.37751472,-0.14294247
1757686903479,3.311181,-3.323152,4.1659107,0.040317107,0.26633725,-0.19792034
1757686903497,2.5713725,-3.0669725,3.490746,0.040317107,0.26633725,-0.19792034
1757686903498,2.5713725,-3.0669725,3.490746,0.34208453,0.15393804,-0.21868975
1757686903518,2.0590134,-2.0087352,2.873042,0.34208453,0.15393804,-0.21868975
1757686903519,2.0590134,-2.0087352,2.873042,0.67073005,0.1160644,-0.25045475
1757686903535,1.9847932,-0.6895301,2.2457612,0.67073005,0.1160644,-0.25045475
1757686903536,1.9847932,-0.6895301,2.2457612,0.87109387,0.15149458,-0.22357668
1757686903557,1.9440918,-0.22266077,1.7046716,0.87109387,0.15149458,-0.22357668
1757686903559,1.9440918,-0.22266077,1.7046716,0.8063421,0.27977628,-0.1282817
1757686903577,2.1547816,-1.1611878,1.3623008,0.8063421,0.27977628,-0.1282817
1757686903579,2.1547816,-1.1611878,1.3623008,0.7244862,0.42271876,-0.10629055
1757686903597,2.1140802,-1.9536686,1.6352397,0.7244862,0.42271876,-0.10629055
1757686903598,2.1140802,-1.9536686,1.6352397,0.8332202,0.6206391,-0.11362094
1757686903617,1.9393034,-1.4437037,1.5945383,0.8332202,0.6206391,-0.11362094
1757686903618,1.9393034,-1.4437037,1.5945383,0.9285152,0.7293731,-0.15515977
1757686903639,1.9153614,-0.5267244,1.7812861,0.9285152,0.7293731,-0.15515977
1757686903640,1.9153614,-0.5267244,1.7812861,1.0164797,0.7770206,-0.23701571
1757686903658,2.3439236,-0.20111294,2.5354595,1.0164797,0.7770206,-0.23701571
1757686903659,2.3439236,-0.20111294,2.5354595,0.90041536,0.7806858,-0.25167647
1757686903678,2.597709,-0.8499416,3.5194764,0.90041536,0.7806858,-0.25167647
1757686903680,2.597709,-0.8499416,3.5194764,0.59620446,0.8784242,-0.20769419
1757686903698,3.2441432,-1.2665327,5.497087,0.59620446,0.8784242,-0.20769419
1757686903699,3.2441432,-1.2665327,5.497087,0.21380283,0.87109387,-0.12461651
1757686903718,4.3502645,-1.1468226,7.074866,0.21380283,0.87109387,-0.12461651
1757686903719,4.3502645,-1.1468226,7.074866,-0.33475417,0.657291,-0.012217305
1757686903738,4.8722005,-1.6256629,8.147469,-0.33475417,0.657291,-0.012217305
1757686903739,4.8722005,-1.6256629,8.147469,-0.752586,0.41416663,0.1282817
1757686903757,4.4723687,-2.5737667,9.016563,-0.752586,0.41416663,0.1282817
1757686903759,4.4723687,-2.5737667,9.016563,-1.1985176,0.16371189,0.22724187
1757686903776,4.8745947,-4.5178585,9.385271,-1.1985176,0.16371189,0.22724187
1757686903778,4.8745947,-4.5178585,9.385271,-1.518611,-0.29810223,0.1966986
1757686903797,5.650316,-6.385336,8.875306,-1.518611,-0.29810223,0.1966986
1757686903799,5.650316,-6.385336,8.875306,-1.2608259,-0.6035349,0.10995574
1757686903817,5.671864,-6.208165,7.2687964,-1.2608259,-0.6035349,0.10995574
1757686903818,5.671864,-6.208165,7.2687964,-0.13927728,-0.5204572,0.14049901
1757686903837,5.681441,-3.205836,6.7253127,-0.13927728,-0.5204572,0.14049901
1757686903839,5.681441,-3.205836,6.7253127,0.4972443,-0.24923302,0.18448131
1757686903857,5.446809,-2.267309,6.813898,0.4972443,-0.24923302,0.18448131
1757686903858,5.446809,-2.267309,6.813898,0.7476991,-0.042760566,0.23945917
1757686903877,5.0374002,-1.9800048,6.8210807,0.7476991,-0.042760566,0.23945917
1757686903879,5.0374002,-1.9800048,6.8210807,0.6377433,0.07574729,0.25167647
1757686903897,4.7429137,-1.9680338,6.0262055,0.6377433,0.07574729,0.25167647
1757686903898,4.7429137,-1.9680338,6.0262055,0.50579643,0.019547688,0.24556783
1757686903919,4.5513773,-1.6543933,5.257667,0.50579643,0.019547688,0.24556783
1757686903920,4.5513773,-1.6543933,5.257667,0.27122417,-0.118507855,0.18936823
1757686903938,4.5513773,-1.283292,4.5274353,0.27122417,-0.118507855,0.18936823
1757686903939,4.5513773,-1.283292,4.5274353,-0.028099801,-0.19425514,0.12461651
1757686903958,4.249708,-1.3000516,4.3646297,-0.028099801,-0.19425514,0.12461651
1757686903959,4.249708,-1.3000516,4.3646297,-0.3555236,-0.24678956,0.087964594
1757686903977,3.7110126,-1.5897499,3.9863458,-0.3555236,-0.24678956,0.087964594
1757686903978,3.7110126,-1.5897499,3.9863458,-0.7134906,-0.2932153,0.10140363
1757686903998,3.2489316,-2.5929205,3.2944214,-0.7134906,-0.2932153,0.10140363
1757686903999,3.2489316,-2.5929205,3.2944214,-1.0079277,-0.38362336,0.07819075
1757686904018,3.3279405,-2.789245,2.767697,-1.0079277,-0.38362336,0.07819075
1757686904019,3.3279405,-2.789245,2.767697,-0.9663888,-0.39950588,0.059864793
1757686904038,3.4572272,-3.1004913,2.5617957,-0.9663888,-0.39950588,0.059864793
1757686904039,3.4572272,-3.1004913,2.5617957,-0.7476991,-0.31887165,0.040317107
1757686904058,3.4165258,-3.311181,2.7844565,-0.7476991,-0.31887165,0.040317107
1757686904059,3.4165258,-3.311181,2.7844565,-0.37873647,-0.22479841,0.040317107
1757686904078,3.25372,-2.930503,3.0142999,-0.37873647,-0.22479841,0.040317107
1757686904080,3.25372,-2.930503,3.0142999,-0.009773844,-0.14905111,0.042760566
1757686904097,3.3423057,-2.372654,3.3135753,-0.009773844,-0.14905111,0.042760566
1757686904098,3.3423057,-2.372654,3.3135753,0.22357668,-0.1282817,0.037873644
1757686904119,3.4835634,-1.6759412,3.715801,0.22357668,-0.1282817,0.037873644
1757686904120,3.4835634,-1.6759412,3.715801,0.26633725,-0.089186326,0.058643065
1757686904136,3.9145198,-1.8938135,4.534618,0.26633725,-0.089186326,0.058643065
1757686904137,3.9145198,-1.8938135,4.534618,0.16982053,-0.032986723,0.056199603
1757686904158,4.1635165,-2.3223755,5.279215,0.16982053,-0.032986723,0.056199603
1757686904159,4.1635165,-2.3223755,5.279215,0.10629055,0.04153884,0.017104227
1757686904176,4.733337,-2.4277205,5.78918,0.10629055,0.04153884,0.017104227
1757686904178,4.733337,-2.4277205,5.78918,0.05497787,-0.017104227,0.08552113
1757686904197,5.3342814,-3.0813377,5.425261,0.05497787,-0.017104227,0.08552113
1757686904199,5.3342814,-3.0813377,5.425261,-0.17348573,-0.080634214,0.10873401
1757686904217,5.7484784,-3.8402996,5.410896,-0.17348573,-0.080634214,0.10873401
1757686904218,5.7484784,-3.8402996,5.410896,-0.41783184,-0.12095132,0.058643065
1757686904237,5.6766524,-4.5513773,6.191406,-0.41783184,-0.12095132,0.058643065
1757686904238,5.6766524,-4.5513773,6.191406,-0.47525316,-0.07819075,0.002443461
1757686904257,5.571307,-5.363012,6.397307,-0.47525316,-0.07819075,0.002443461
1757686904258,5.571307,-5.363012,6.397307,-0.35308012,-0.062308256,0.015882496
1757686904277,5.7963624,-5.403713,6.2967505,-0.35308012,-0.062308256,0.015882496
1757686904279,5.7963624,-5.403713,6.2967505,-0.12217305,-0.12583824,0.02076942
1757686904297,6.5146227,-4.560954,6.2752028,-0.12217305,-0.12583824,0.02076942
1757686904299,6.5146227,-4.560954,6.2752028,0.02443461,-0.2125811,0.02076942
1757686904320,7.204153,-4.4364557,6.7851677,0.02443461,-0.2125811,0.02076942
1757686904321,7.204153,-4.4364557,6.7851677,0.02687807,-0.21135938,0.04153884
1757686904336,7.4363904,-5.121197,7.177817,0.02687807,-0.21135938,0.04153884
1757686904338,7.4363904,-5.121197,7.177817,-0.18325958,-0.1600467,0.07819075
1757686904357,7.589619,-6.279991,7.3765354,-0.18325958,-0.1600467,0.07819075
1757686904359,7.589619,-6.279991,7.3765354,-0.36285394,-0.21013765,0.095294975
1757686904377,7.9702973,-6.6079965,7.807492,-0.36285394,-0.21013765,0.095294975
1757686904378,7.9702973,-6.6079965,7.807492,-0.31520647,-0.267559,0.087964594
1757686904398,8.798691,-6.691794,8.257602,-0.31520647,-0.267559,0.087964594
1757686904399,8.798691,-6.691794,8.257602,-0.2602286,-0.24312437,0.0720821
1757686904418,8.99741,-6.517017,8.422802,-0.2602286,-0.24312437,0.0720821
1757686904419,8.99741,-6.517017,8.422802,-0.35185838,-0.18570304,0.1441642
1757686904437,8.92319,-7.702147,8.231265,-0.35185838,-0.18570304,0.1441642
1757686904438,8.92319,-7.702147,8.231265,-0.33108896,-0.24312437,0.2284636
1757686904455,9.172187,-8.470686,8.7125,-0.33108896,-0.24312437,0.2284636
1757686904457,9.172187,-8.470686,8.7125,-0.31520647,-0.30176744,0.20158553
1757686904477,9.160215,-7.7428484,9.0716305,-0.31520647,-0.30176744,0.20158553
1757686904478,9.160215,-7.7428484,9.0716305,-0.4728097,-0.204029,0.09162979
1757686904496,8.844181,-8.013393,8.626308,-0.4728097,-0.204029,0.09162979
1757686904498,8.844181,-8.013393,8.626308,-0.6267477,-0.13683382,0.06719518
1757686904519,10.141838,-9.095572,8.556877,-0.6267477,-0.13683382,0.06719518
1757686904521,10.141838,-9.095572,8.556877,-0.09773844,-0.267559,0.04886922
1757686904535,10.9343195,-7.1371155,9.617508,-0.09773844,-0.267559,0.04886922
1757686904536,10.9343195,-7.1371155,9.617508,0.21135938,-0.19181168,0.059864793
1757686904554,10.412383,-7.795521,8.722076,0.21135938,-0.19181168,0.059864793
1757686904555,10.412383,-7.795521,8.722076,-0.07941248,-0.105068825,0.004886922
1757686904575,11.190498,-10.113108,8.018182,-0.07941248,-0.105068825,0.004886922
1757686904577,11.190498,-10.113108,8.018182,-0.19303341,-0.19425514,0.0012217305
1757686904596,11.058818,-9.667787,8.279149,-0.19303341,-0.19425514,0.0012217305
1757686904598,11.058818,-9.667787,8.279149,0.07819075,-0.112399206,-0.081855945
1757686904615,10.323798,-8.202535,8.542512,0.07819075,-0.112399206,-0.081855945
1757686904617,10.323798,-8.202535,8.542512,0.19547687,-0.02076942,-0.12950343
1757686904637,10.599131,-7.752425,8.659827,0.19547687,-0.02076942,-0.12950343
1757686904638,10.599131,-7.752425,8.659827,-0.043982297,-0.013439035,-0.13805555
1757686904659,10.263943,-8.192958,8.719683,-0.043982297,-0.013439035,-0.13805555
1757686904661,10.263943,-8.192958,8.719683,-0.19303341,0.056199603,-0.09896017
1757686904677,9.385271,-8.520964,9.409213,-0.19303341,0.056199603,-0.09896017
1757686904678,9.385271,-8.520964,9.409213,-0.22479841,0.15149458,-0.04886922
1757686904696,9.627085,-8.868123,8.3390045,-0.22479841,0.15149458,-0.04886922
1757686904698,9.627085,-8.868123,8.3390045,-0.07574729,0.1600467,-0.061086524
1757686904717,10.06283,-7.45315,7.8649526,-0.07574729,0.1600467,-0.061086524
1757686904719,10.06283,-7.45315,7.8649526,0.095294975,0.2602286,-0.089186326
1757686904737,10.134656,-6.6367273,7.457938,0.095294975,0.2602286,-0.089186326
1757686904738,10.134656,-6.6367273,7.457938,0.09773844,0.3652974,-0.004886922
1757686904757,10.16578,-7.156269,7.4603324,0.09773844,0.3652974,-0.004886922
1757686904758,10.16578,-7.156269,7.4603324,-0.13072516,0.48258355,0.07086037
1757686904778,8.693346,-7.587225,7.1826053,-0.13072516,0.48258355,0.07086037
1757686904779,8.693346,-7.587225,7.1826053,-0.26633725,0.74281216,0.11362094
1757686904798,7.66384,-8.271967,6.777985,-0.26633725,0.74281216,0.11362094
1757686904799,7.66384,-8.271967,6.777985,-0.3371976,0.8368854,0.17837265
1757686904817,7.716512,-8.6095495,6.9623384,-0.3371976,0.8368854,0.17837265
1757686904819,7.716512,-8.6095495,6.9623384,-0.46181414,0.75869465,0.12950343
1757686904837,7.920019,-8.37013,7.465121,-0.46181414,0.75869465,0.12950343
1757686904839,7.920019,-8.37013,7.465121,-0.27000242,0.6609562,0.057421334
1757686904857,7.3789296,-7.3047094,7.848193,-0.27000242,0.6609562,0.057421334
1757686904858,7.3789296,-7.3047094,7.848193,-0.14782938,0.63163465,0.015882496
1757686904878,6.5936313,-6.471527,6.4906807,-0.14782938,0.63163465,0.015882496
1757686904880,6.5936313,-6.471527,6.4906807,-0.1001819,0.5363397,-0.040317107
1757686904898,6.6391215,-6.1076083,6.2871737,-0.1001819,0.5363397,-0.040317107
1757686904900,6.6391215,-6.1076083,6.2871737,-0.089186326,0.50579643,-0.043982297
1757686904918,5.650316,-5.6359506,6.1770406,-0.089186326,0.50579643,-0.043982297
1757686904920,5.650316,-5.6359506,6.1770406,-0.080634214,0.535118,-0.061086524
1757686904937,4.699818,-5.142745,5.6335564,-0.080634214,0.535118,-0.061086524
1757686904938,4.699818,-5.142745,5.6335564,-0.089186326,0.45570546,-0.056199603
1757686904957,4.0078936,-4.6591167,5.209783,-0.089186326,0.45570546,-0.056199603
1757686904959,4.0078936,-4.6591167,5.209783,-0.12339478,0.3213151,-0.021991149
1757686904977,3.4739866,-4.9895163,5.1355624,-0.12339478,0.3213151,-0.021991149
1757686904978,3.4739866,-4.9895163,5.1355624,0.012217305,0.2003638,-0.002443461
1757686904998,2.822764,-4.642357,5.3103395,0.012217305,0.2003638,-0.002443461
1757686904999,2.822764,-4.642357,5.3103395,0.2761111,0.07696902,-0.012217305
1757686905018,2.2242134,-3.7948096,4.8626237,0.2761111,0.07696902,-0.012217305
1757686905020,2.2242134,-3.7948096,4.8626237,0.61086524,-0.09896017,0.0
1757686905038,2.2960393,-2.8898015,3.5242648,0.61086524,-0.09896017,0.0
1757686905040,2.2960393,-2.8898015,3.5242648,0.8918633,-0.2919936,0.013439035
1757686905056,2.2002714,-1.9321208,2.5833437,0.8918633,-0.2919936,0.013439035
1757686905058,2.2002714,-1.9321208,2.5833437,0.9468411,-0.4373795,0.09162979
1757686905079,1.5131354,-2.15957,2.0446482,0.9468411,-0.4373795,0.09162979
1757686905081,1.5131354,-2.15957,2.0446482,0.87964594,-0.44593164,0.11728613
1757686905096,1.0247183,-2.3247697,1.7669208,0.87964594,-0.44593164,0.11728613
1757686905098,1.0247183,-2.3247697,1.7669208,0.8454375,-0.5045747,0.12339478
1757686905118,1.1731589,-1.8387469,1.3718776,0.8454375,-0.5045747,0.12339478
1757686905120,1.1731589,-1.8387469,1.3718776,0.8332202,-0.5571091,0.14660765
1757686905135,1.6448165,-1.1300632,1.1180922,0.8332202,-0.5571091,0.14660765
1757686905136,1.6448165,-1.1300632,1.1180922,0.7318166,-0.5326745,0.17348573
1757686905157,1.9512744,-1.0295067,1.1755531,0.7318166,-0.5326745,0.17348573
1757686905158,1.9512744,-1.0295067,1.1755531,0.57543504,-0.37873647,0.16249016
1757686905174,2.1978772,-1.4173675,1.5993267,0.57543504,-0.37873647,0.16249016
1757686905175,2.1978772,-1.4173675,1.5993267,0.3921755,-0.16493362,0.13072516
1757686905195,2.8419175,-1.7932571,2.4660277,0.3921755,-0.16493362,0.13072516
1757686905197,2.8419175,-1.7932571,2.4660277,0.4092797,0.14049901,0.064751714
1757686905214,2.9831753,-1.5251064,3.514688,0.4092797,0.14049901,0.064751714
1757686905215,2.9831753,-1.5251064,3.514688,0.6267477,0.5448918,0.02443461
1757686905235,3.9863458,-1.4676456,5.8107276,0.6267477,0.5448918,0.02443461
1757686905236,3.9863458,-1.4676456,5.8107276,0.5900958,0.5864306,0.018325957
1757686905255,4.5801077,-1.5251064,7.477092,0.5900958,0.5864306,0.018325957
1757686905255,4.5801077,-1.5251064,7.477092,0.15149458,0.58276546,-0.0061086523
1757686905275,5.161899,-1.9895816,8.710106,0.15149458,0.58276546,-0.0061086523
1757686905276,5.161899,-1.9895816,8.710106,-0.4288274,0.47158796,0.007330383
1757686905294,5.475539,-3.1483753,8.774749,-0.4288274,0.47158796,0.007330383
1757686905295,5.475539,-3.1483753,8.774749,-1.0897835,0.10629055,0.06963864
1757686905315,5.770026,-5.379771,7.9846625,-1.0897835,0.10629055,0.06963864
1757686905316,5.770026,-5.379771,7.9846625,-1.4697418,-0.29565877,0.09162979
1757686905333,5.439626,-7.2687964,7.285556,-1.4697418,-0.29565877,0.09162979
1757686905334,5.439626,-7.2687964,7.285556,-1.3206906,-0.48258355,0.12339478
1757686905354,4.8027687,-7.443573,6.4068837,-1.3206906,-0.48258355,0.12339478
1757686905355,4.8027687,-7.443573,6.4068837,-0.7244862,-0.5497787,0.1160644
1757686905374,4.9943047,-5.8442464,5.959168,-0.7244862,-0.5497787,0.1160644
1757686905375,4.9943047,-5.8442464,5.959168,-0.10751228,-0.5693264,0.05375614
1757686905395,5.351041,-4.209007,5.925649,-0.10751228,-0.5693264,0.05375614
1757686905395,5.351041,-4.209007,5.925649,0.3408628,-0.41172317,0.0720821
1757686905413,5.683835,-2.4349031,6.1650696,0.3408628,-0.41172317,0.0720821
1757686905414,5.683835,-2.4349031,6.1650696,0.2406809,-0.28955013,0.15760323
1757686905435,5.2959743,-2.4756045,6.2368956,0.2406809,-0.28955013,0.15760323
1757686905435,5.2959743,-2.4756045,6.2368956,-0.030543262,-0.2003638,0.24312437
1757686905453,5.161899,-2.7988217,5.8945246,-0.030543262,-0.2003638,0.24312437
1757686905453,5.161899,-2.7988217,5.8945246,-0.3115413,-0.1966986,0.20891592
1757686905473,4.6830587,-3.2465374,5.3462524,-0.3115413,-0.1966986,0.20891592
1757686905474,4.6830587,-3.2465374,5.3462524,-0.4642576,-0.25045475,0.15515977
1757686905494,4.855441,-3.406949,4.72376,-0.4642576,-0.25045475,0.15515977
1757686905495,4.855441,-3.406949,4.72376,-0.62796944,-0.30543262,0.010995574
1757686905517,4.795586,-3.3638535,4.2664676,-0.62796944,-0.30543262,0.010995574
1757686905518,4.795586,-3.3638535,4.2664676,-0.7049385,-0.28710666,-0.10873401
1757686905535,4.3478703,-2.755726,4.331111,-0.7049385,-0.28710666,-0.10873401
1757686905536,4.3478703,-2.755726,4.331111,-0.77824235,-0.28099802,-0.18203785
1757686905557,4.086902,-2.3582888,4.0174704,-0.77824235,-0.28099802,-0.18203785
1757686905558,4.086902,-2.3582888,4.0174704,-0.93828905,-0.32498032,-0.2406809
1757686905577,4.024653,-2.741361,3.1842883,-0.93828905,-0.32498032,-0.2406809
1757686905579,4.024653,-2.741361,3.1842883,-1.047023,-0.344528,-0.25411993
1757686905596,3.9121256,-3.086126,3.040636,-1.047023,-0.344528,-0.25411993
1757686905598,3.9121256,-3.086126,3.040636,-0.906524,-0.28588495,-0.25778514
1757686905617,3.739743,-2.9616275,2.834735,-0.906524,-0.28588495,-0.25778514
1757686905618,3.739743,-2.9616275,2.834735,-0.7464773,-0.18570304,-0.2846632
1757686905637,3.6535518,-3.083732,2.5330653,-0.7464773,-0.18570304,-0.2846632
1757686905638,3.6535518,-3.083732,2.5330653,-0.59986967,-0.07452556,-0.28710666
1757686905659,3.833117,-3.311181,2.3870192,-0.59986967,-0.07452556,-0.28710666
1757686905660,3.833117,-3.311181,2.3870192,-0.51068336,0.057421334,-0.28710666
1757686905676,3.8426938,-3.3614593,2.396596,-0.51068336,0.057421334,-0.28710666
1757686905678,3.8426938,-3.3614593,2.396596,-0.35308012,0.17715092,-0.2846632
1757686905696,3.6104562,-3.040636,2.801216,-0.35308012,0.17715092,-0.2846632
1757686905698,3.6104562,-3.040636,2.801216,-0.22235495,0.26511553,-0.28710666
1757686905717,3.6463692,-2.906561,3.4931402,-0.22235495,0.26511553,-0.28710666
1757686905718,3.6463692,-2.906561,3.4931402,-0.19547687,0.2846632,-0.2932153
1757686905736,4.2401314,-3.145981,3.9217024,-0.19547687,0.2846632,-0.2932153
1757686905738,4.2401314,-3.145981,3.9217024,-0.23457226,0.2406809,-0.25045475
1757686905757,4.999093,-3.608062,4.1491513,-0.23457226,0.2406809,-0.25045475
1757686905758,4.999093,-3.608062,4.1491513,-0.39828414,0.22968534,-0.1685988
1757686905776,5.494693,-4.3287168,4.2784386,-0.39828414,0.22968534,-0.1685988
1757686905778,5.494693,-4.3287168,4.2784386,-0.42149702,0.17348573,-0.0720821
1757686905797,5.8107276,-5.5521536,4.4436383,-0.42149702,0.17348573,-0.0720821
1757686905798,5.8107276,-5.5521536,4.4436383,-0.30787608,0.17715092,-0.05375614
1757686905816,5.21936,-6.167464,4.783615,-0.30787608,0.17715092,-0.05375614
1757686905818,5.21936,-6.167464,4.783615,-0.12461651,0.20769419,-0.05497787
1757686905837,5.142745,-6.3901243,4.9536033,-0.12461651,0.20769419,-0.05497787
1757686905838,5.142745,-6.3901243,4.9536033,0.065973446,0.12461651,-0.05009095
1757686905856,6.0860605,-5.777209,4.948815,0.065973446,0.12461651,-0.05009095
1757686905858,6.0860605,-5.777209,4.948815,0.03176499,0.03176499,-0.0061086523
1757686905876,6.519411,-6.351817,5.568913,0.03176499,0.03176499,-0.0061086523
1757686905878,6.519411,-6.351817,5.568913,-0.18570304,0.04886922,0.10262536
1757686905895,6.423643,-7.501034,5.363012,-0.18570304,0.04886922,0.10262536
1757686905897,6.423643,-7.501034,5.363012,-0.41783184,0.034208454,0.12705997
1757686905917,6.9383965,-7.189788,5.509058,-0.41783184,0.034208454,0.12705997
1757686905918,6.9383965,-7.189788,5.509058,-0.4007276,-0.073303826,0.0842994
1757686905936,8.765172,-7.410054,6.6750345,-0.4007276,-0.073303826,0.0842994
1757686905938,8.765172,-7.410054,6.6750345,-0.52534413,-0.042760566,0.105068825
1757686905957,8.003817,-8.295909,6.2608376,-0.52534413,-0.042760566,0.105068825
1757686905958,8.003817,-8.295909,6.2608376,-0.6780604,0.037873644,0.14660765
1757686905976,7.5082164,-8.935161,6.179435,-0.6780604,0.037873644,0.14660765
1757686905977,7.5082164,-8.935161,6.179435,-0.8014552,-0.081855945,0.1282817
1757686905997,8.607155,-9.921572,6.4140663,-0.8014552,-0.081855945,0.1282817
1757686905998,8.607155,-9.921572,6.4140663,-0.7293731,-0.23579398,0.02076942
1757686906017,9.19134,-10.560823,6.0501475,-0.7293731,-0.23579398,0.02076942
1757686906018,9.19134,-10.560823,6.0501475,-0.35185838,-0.25778514,-0.039095376
1757686906036,8.319851,-9.923966,6.4188547,-0.35185838,-0.25778514,-0.039095376
1757686906038,8.319851,-9.923966,6.4188547,0.2761111,-0.16615535,-0.081855945
1757686906055,8.1163435,-8.4347725,6.7564373,0.2761111,-0.16615535,-0.081855945
1757686906057,8.1163435,-8.4347725,6.7564373,0.6267477,-0.21380283,-0.0720821
1757686906077,9.583989,-7.417237,6.9264255,0.6267477,-0.21380283,-0.0720821
1757686906079,9.583989,-7.417237,6.9264255,0.33353242,-0.3726278,-0.034208454
1757686906097,10.084377,-8.166622,6.7947445,0.33353242,-0.3726278,-0.034208454
1757686906099,10.084377,-8.166622,6.7947445,-0.22724187,-0.2919936,0.06719518
1757686906116,8.494628,-10.213664,7.410054,-0.22724187,-0.2919936,0.06719518
1757686906118,8.494628,-10.213664,7.410054,-0.3371976,-0.081855945,0.15393804
1757686906136,7.8146744,-9.873688,7.3286514,-0.3371976,-0.081855945,0.15393804
1757686906138,7.8146744,-9.873688,7.3286514,-0.064751714,-0.15271631,0.18936823
1757686906157,8.959103,-9.710882,6.217742,-0.064751714,-0.15271631,0.18936823
1757686906158,8.959103,-9.710882,6.217742,0.002443461,-0.30909783,0.18325958
1757686906173,10.1226845,-10.04607,6.0621185,0.002443461,-0.30909783,0.18325958
1757686906175,10.1226845,-10.04607,6.0621185,-0.012217305,-0.35063666,0.13194689
1757686906194,9.957485,-10.515334,5.9902925,-0.012217305,-0.35063666,0.13194689
1757686906195,9.957485,-10.515334,5.9902925,0.05131268,-0.35063666,0.089186326
1757686906217,10.627861,-10.359711,5.9519854,0.05131268,-0.35063666,0.089186326
1757686906218,10.627861,-10.359711,5.9519854,0.21502456,-0.43004912,0.0720821
1757686906235,11.21444,-9.9550905,6.493075,0.21502456,-0.43004912,0.0720821
1757686906236,11.21444,-9.9550905,6.493075,0.32742378,-0.35185838,0.081855945
1757686906256,10.156203,-9.488221,7.053318,0.32742378,-0.35185838,0.081855945
1757686906258,10.156203,-9.488221,7.053318,0.27122417,-0.111177474,0.007330383
1757686906277,9.459491,-8.853758,6.909666,0.27122417,-0.111177474,0.007330383
1757686906278,9.459491,-8.853758,6.909666,0.1441642,-0.12095132,-0.010995574
1757686906296,9.576807,-9.3733,6.3446345,0.1441642,-0.12095132,-0.010995574
1757686906298,9.576807,-9.3733,6.3446345,-0.02321288,-0.14049901,-0.009773844
1757686906317,9.85214,-10.280702,6.730101,-0.02321288,-0.14049901,-0.009773844
1757686906318,9.85214,-10.280702,6.730101,0.13439035,0.0,0.042760566
1757686906336,9.452309,-9.959879,6.787562,0.13439035,0.0,0.042760566
1757686906338,9.452309,-9.959879,6.787562,0.43493605,0.118507855,0.028099801
1757686906357,9.437943,-8.760384,6.921637,0.43493605,0.118507855,0.028099801
1757686906358,9.437943,-8.760384,6.921637,0.61575216,0.11728613,-0.040317107
1757686906374,9.545682,-8.293514,6.126762,0.61575216,0.11728613,-0.040317107
1757686906376,9.545682,-8.293514,6.126762,0.5644395,0.095294975,-0.0720821
1757686906396,9.713276,-8.042124,5.7748146,0.5644395,0.095294975,-0.0720821
1757686906398,9.713276,-8.042124,5.7748146,0.4166101,0.13805555,-0.1001819
1757686906416,9.124303,-7.905654,5.837064,0.4166101,0.13805555,-0.1001819
1757686906418,9.124303,-7.905654,5.837064,0.33475417,0.25778514,-0.05497787
1757686906436,8.255207,-7.8529816,6.0621185,0.33475417,0.25778514,-0.05497787
1757686906438,8.255207,-7.8529816,6.0621185,0.30176744,0.30298916,-0.021991149
1757686906456,7.644686,-7.52737,5.341464,0.30176744,0.30298916,-0.021991149
1757686906458,7.644686,-7.52737,5.341464,0.38240165,0.2003638,-0.017104227
1757686906477,7.2448545,-7.0341644,5.303157,0.38240165,0.2003638,-0.017104227
1757686906478,7.2448545,-7.0341644,5.303157,0.41538838,0.2565634,0.012217305
1757686906495,6.543353,-6.7708025,5.3438582,0.41538838,0.2565634,0.012217305
1757686906496,6.543353,-6.7708025,5.3438582,0.47891834,0.32253686,0.042760566
1757686906517,6.447585,-6.0860605,5.0374002,0.47891834,0.32253686,0.042760566
1757686906518,6.447585,-6.0860605,5.0374002,0.49357912,0.33841935,0.034208454
1757686906535,6.3829417,-5.791574,4.8458643,0.49357912,0.33841935,0.034208454
1757686906537,6.3829417,-5.791574,4.8458643,0.56199604,0.31764993,0.035430185
1757686906556,6.3925185,-5.1571107,3.8139634,0.56199604,0.31764993,0.035430185
1757686906558,6.3925185,-5.1571107,3.8139634,0.66950834,0.28588495,-0.015882496
1757686906576,6.457162,-4.5920787,3.347094,0.66950834,0.28588495,-0.015882496
1757686906577,6.457162,-4.5920787,3.347094,0.7733554,0.36896262,-0.042760566
1757686906595,5.74369,-3.4021606,4.048595,0.7733554,0.36896262,-0.042760566
1757686906596,5.74369,-3.4021606,4.048595,0.64751714,0.5497787,-0.039095376
1757686906616,4.4556093,-3.2752678,4.378995,0.64751714,0.5497787,-0.039095376
1757686906617,4.4556093,-3.2752678,4.378995,0.3652974,0.6560693,-0.019547688
1757686906637,3.7134068,-4.699818,4.378995,0.3652974,0.6560693,-0.019547688
1757686906638,3.7134068,-4.699818,4.378995,0.12217305,0.47769663,-0.05009095
1757686906656,3.3494883,-4.156334,3.9671922,0.12217305,0.47769663,-0.05009095
1757686906657,3.3494883,-4.156334,3.9671922,0.4007276,0.36041048,-0.08307768
1757686906676,2.9137435,-2.741361,3.5793316,0.4007276,0.36041048,-0.08307768
1757686906678,2.9137435,-2.741361,3.5793316,0.46670106,0.3115413,-0.12217305
1757686906695,2.327164,-2.396596,2.8538885,0.46670106,0.3115413,-0.12217305
1757686906697,2.327164,-2.396596,2.8538885,0.36285394,0.31764993,-0.13927728
1757686906716,2.0853498,-2.6431987,2.1404164,0.36285394,0.31764993,-0.13927728
1757686906718,2.0853498,-2.6431987,2.1404164,0.29443705,0.32620203,-0.15393804
1757686906735,1.9273324,-2.2840683,1.3838485,0.29443705,0.32620203,-0.15393804
1757686906737,1.9273324,-2.2840683,1.3838485,0.40194935,0.36163223,-0.14538592
1757686906756,1.5897499,-1.3215994,1.079785,0.40194935,0.36163223,-0.14538592
1757686906758,1.5897499,-1.3215994,1.079785,0.53878313,0.44104472,-0.14660765
1757686906776,1.436521,-0.6584055,0.92416185,0.53878313,0.44104472,-0.14660765
1757686906777,1.436521,-0.6584055,0.92416185,0.50823987,0.44959682,-0.15271631
1757686906795,1.2808979,-0.6488287,0.6607997,0.50823987,0.44959682,-0.15271631
1757686906797,1.2808979,-0.6488287,0.6607997,0.41172317,0.43004912,-0.14905111
1757686906816,1.9201498,-0.5674258,1.2856863,0.41172317,0.43004912,-0.14905111
1757686906817,1.9201498,-0.5674258,1.2856863,0.21502456,0.44715336,-0.09407325
1757686906835,2.765303,-1.1228806,3.4261026,0.21502456,0.44715336,-0.09407325
1757686906837,2.765303,-1.1228806,3.4261026,-0.02076942,0.5326745,-0.05009095
1757686906855,2.8658595,-2.7341783,5.2385135,-0.02076942,0.5326745,-0.05009095
1757686906856,2.8658595,-2.7341783,5.2385135,-0.22968534,0.59864795,-0.009773844
1757686906875,3.1483753,-3.6846764,6.679823,-0.22968534,0.59864795,-0.009773844
1757686906877,3.1483753,-3.6846764,6.679823,-0.35796702,0.3408628,0.014660766
1757686906894,4.7046065,-4.2042184,7.9104424,-0.35796702,0.3408628,0.014660766
1757686906896,4.7046065,-4.2042184,7.9104424,-0.37507126,-0.058643065,-0.04520403
1757686906915,6.184223,-5.1810527,8.319851,-0.37507126,-0.058643065,-0.04520403
1757686906916,6.184223,-5.1810527,8.319851,-0.43493605,-0.32498032,-0.12583824
1757686906934,6.217742,-5.604826,8.767567,-0.43493605,-0.32498032,-0.12583824
1757686906936,6.217742,-5.604826,8.767567,-0.4972443,-0.29810223,-0.18203785
1757686906955,5.686229,-5.3606176,8.76996,-0.4972443,-0.29810223,-0.18203785
1757686906957,5.686229,-5.3606176,8.76996,-0.55833083,-0.22235495,-0.23457226
1757686906975,6.2225304,-5.33907,8.169016,-0.55833083,-0.22235495,-0.23457226
1757686906976,6.2225304,-5.33907,8.169016,-0.5290093,-0.2565634,-0.24556783
1757686906996,5.923255,-4.984728,7.381324,-0.5290093,-0.2565634,-0.24556783
1757686906997,5.923255,-4.984728,7.381324,-0.27122417,-0.15393804,-0.15882497
1757686907015,5.207389,-4.771644,6.5098343,-0.27122417,-0.15393804,-0.15882497
1757686907017,5.207389,-4.771644,6.5098343,-0.12950343,-0.0842994,-0.12461651
1757686907036,4.9919105,-4.5920787,5.90889,-0.12950343,-0.0842994,-0.12461651
1757686907038,4.9919105,-4.5920787,5.90889,0.056199603,-0.05131268,-0.09773844
1757686907056,4.951209,-3.9217024,5.427655,0.056199603,-0.05131268,-0.09773844
1757686907057,4.951209,-3.9217024,5.427655,0.20158553,-0.02076942,-0.062308256
1757686907076,4.618415,-3.4021606,5.161899,0.20158553,-0.02076942,-0.062308256
1757686907077,4.618415,-3.4021606,5.161899,0.21868975,-0.02321288,-0.018325957
1757686907095,4.0797195,-3.0502129,4.9416323,0.21868975,-0.02321288,-0.018325957
1757686907097,4.0797195,-3.0502129,4.9416323,0.11728613,-0.0720821,0.0012217305
1757686907116,3.7110126,-2.633622,4.7644615,0.11728613,-0.0720821,0.0012217305
1757686907118,3.7110126,-2.633622,4.7644615,-0.035430185,-0.18570304,0.0
1757686907135,3.763685,-2.255338,4.5992613,-0.035430185,-0.18570304,0.0
1757686907137,3.763685,-2.255338,4.5992613,-0.31520647,-0.30298916,0.029321533
1757686907156,4.1611223,-2.6791117,4.3622355,-0.31520647,-0.30298916,0.029321533
1757686907157,4.1611223,-2.6791117,4.3622355,-0.8258898,-0.36285394,0.07696902
1757686907174,3.8666358,-3.9025488,3.9097314,-0.8258898,-0.36285394,0.07696902
1757686907175,3.8666358,-3.9025488,3.9097314,-0.93951076,-0.34697145,0.09285152
1757686907196,3.4213142,-4.0916905,3.406949,-0.93951076,-0.34697145,0.09285152
1757686907198,3.4213142,-4.0916905,3.406949,-0.7855727,-0.33841935,0.06841691
1757686907216,3.2249897,-3.7373488,2.8083985,-0.7855727,-0.33841935,0.06841691
1757686907217,3.2249897,-3.7373488,2.8083985,-0.43127087,-0.29565877,0.02687807
1757686907239,3.1555579,-3.1675289,2.336741,-0.43127087,-0.29565877,0.02687807
1757686907242,3.1555579,-3.1675289,2.336741,-0.029321533,-0.18936823,-0.010995574
1757686907254,3.3662477,-2.183512,2.1332338,-0.029321533,-0.18936823,-0.010995574
1757686907255,3.3662477,-2.183512,2.1332338,0.15760323,-0.05009095,-0.012217305
1757686907274,3.4596214,-1.661576,2.552219,0.15760323,-0.05009095,-0.012217305
1757686907275,3.4596214,-1.661576,2.552219,0.043982297,0.008552114,0.056199603
1757686907294,3.5577838,-1.6759412,3.301604,0.043982297,0.008552114,0.056199603
1757686907296,3.5577838,-1.6759412,3.301604,-0.2968805,0.03176499,0.112399206
1757686907318,3.2369606,-2.5450363,3.8642416,-0.2968805,0.03176499,0.112399206
1757686907319,3.2369606,-2.5450363,3.8642416,-0.5363397,0.002443461,0.15027285
1757686907336,3.3758245,-3.845088,4.4843397,-0.5363397,0.002443461,0.15027285
1757686907337,3.3758245,-3.845088,4.4843397,-0.52412236,-0.08307768,0.112399206
1757686907357,3.715801,-4.1299977,4.417302,-0.52412236,-0.08307768,0.112399206
1757686907358,3.715801,-4.1299977,4.417302,-0.37751472,-0.111177474,0.062308256
1757686907376,4.1946416,-3.881001,4.1826706,-0.37751472,-0.111177474,0.062308256
1757686907377,4.1946416,-3.881001,4.1826706,-0.2773328,-0.1563815,0.014660766
1757686907397,4.453215,-3.892972,4.3526587,-0.2773328,-0.1563815,0.014660766
1757686907398,4.453215,-3.892972,4.3526587,-0.27977628,-0.172264,0.021991149
1757686907415,5.0014873,-4.3742065,4.582502,-0.27977628,-0.172264,0.021991149
1757686907417,5.0014873,-4.3742065,4.582502,-0.35918877,-0.19181168,0.039095376
1757686907436,5.269638,-4.9416323,5.1140146,-0.35918877,-0.19181168,0.039095376
1757686907438,5.269638,-4.9416323,5.1140146,-0.2932153,-0.21135938,0.081855945
1757686907455,5.401319,-5.305551,5.317522,-0.2932153,-0.21135938,0.081855945
1757686907457,5.401319,-5.305551,5.317522,-0.13072516,-0.22479841,0.10751228
1757686907476,5.705383,-5.461174,5.269638,-0.13072516,-0.22479841,0.10751228
1757686907478,5.705383,-5.461174,5.269638,-0.017104227,-0.27122417,0.103847094
1757686907494,6.4499793,-5.6359506,5.1571107,-0.017104227,-0.27122417,0.103847094
1757686907496,6.4499793,-5.6359506,5.1571107,0.052534413,-0.2846632,0.07941248
1757686907516,7.314286,-6.0980315,5.3127337,0.052534413,-0.2846632,0.07941248
1757686907517,7.314286,-6.0980315,5.3127337,-0.040317107,-0.21502456,0.02076942
1757686907535,7.7189064,-6.4739213,5.9759274,-0.040317107,-0.21502456,0.02076942
1757686907536,7.7189064,-6.4739213,5.9759274,-0.13072516,-0.11484267,-0.0061086523
1757686907556,7.469909,-7.065289,6.4427967,-0.13072516,-0.11484267,-0.0061086523
1757686907558,7.469909,-7.065289,6.4427967,-0.19303341,-0.07696902,0.0
1757686907575,7.7452426,-7.771579,6.105214,-0.19303341,-0.07696902,0.0
1757686907576,7.7452426,-7.771579,6.105214,-0.12217305,-0.18448131,-0.013439035
1757686907596,9.200917,-8.039729,6.181829,-0.12217305,-0.18448131,-0.013439035
1757686907598,9.200917,-8.039729,6.181829,0.080634214,-0.28221974,-0.008552114
1757686907615,9.390059,-7.7548194,6.9767036,0.080634214,-0.28221974,-0.008552114
1757686907617,9.390059,-7.7548194,6.9767036,0.0720821,-0.16615535,0.04520403
1757686907635,8.37013,-8.346188,7.1993647,0.0720821,-0.16615535,0.04520403
1757686907637,8.37013,-8.346188,7.1993647,-0.29810223,-0.05375614,0.096516706
1757686907655,8.918402,-10.601525,7.52737,-0.29810223,-0.05375614,0.096516706
1757686907657,8.918402,-10.601525,7.52737,-0.37140608,-0.14294247,0.002443461
1757686907676,11.252748,-11.305421,9.105149,-0.37140608,-0.14294247,0.002443461
1757686907677,11.252748,-11.305421,9.105149,0.056199603,-0.27122417,-0.030543262
1757686907695,10.053253,-8.746018,9.634268,0.056199603,-0.27122417,-0.030543262
1757686907697,10.053253,-8.746018,9.634268,0.6976081,-0.10873401,0.05497787
1757686907715,9.842564,-7.062895,6.3685765,0.6976081,-0.10873401,0.05497787
1757686907717,9.842564,-7.062895,6.3685765,0.408058,-0.19058995,-0.061086524
1757686907735,13.347674,-8.365341,8.200141,0.408058,-0.19058995,-0.061086524
1757686907737,13.347674,-8.365341,8.200141,0.35918877,-0.04642576,-0.1441642
1757686907756,11.049241,-10.350134,9.715671,0.35918877,-0.04642576,-0.1441642
1757686907757,11.049241,-10.350134,9.715671,-0.44348818,0.40561453,-0.09773844
1757686907775,5.0876784,-11.872847,8.037335,-0.44348818,0.40561453,-0.09773844
1757686907777,5.0876784,-11.872847,8.037335,-0.59620446,0.39828414,0.014660766
1757686907796,6.2632318,-10.259154,5.9064956,-0.59620446,0.39828414,0.014660766
1757686907797,6.2632318,-10.259154,5.9064956,0.28588495,-0.09162979,-0.12461651
1757686907815,10.0029745,-8.183381,6.1100025,0.28588495,-0.09162979,-0.12461651
1757686907816,10.0029745,-8.183381,6.1100025,0.9468411,-0.27488935,-0.095294975
1757686907835,10.014946,-7.9487495,6.9862804,0.9468411,-0.27488935,-0.095294975
1757686907837,10.014946,-7.9487495,6.9862804,0.7648033,-0.004886922,0.0842994
1757686907855,9.141062,-8.604761,7.85777,0.7648033,-0.004886922,0.0842994
1757686907856,9.141062,-8.604761,7.85777,-0.037873644,0.09040806,0.17959438
1757686907876,10.15381,-9.660604,8.327033,-0.037873644,0.09040806,0.17959438
1757686907878,10.15381,-9.660604,8.327033,-0.204029,-0.05009095,0.07086037
1757686907895,10.630256,-9.167398,9.224859,-0.204029,-0.05009095,0.07086037
1757686907897,10.630256,-9.167398,9.224859,-0.037873644,-0.087964594,-0.012217305
1757686907915,9.399636,-8.408437,8.599973,-0.037873644,-0.087964594,-0.012217305
1757686907917,9.399636,-8.408437,8.599973,0.21746802,0.1160644,0.019547688
1757686907934,8.240842,-8.085219,7.5561004,0.21746802,0.1160644,0.019547688
1757686907935,8.240842,-8.085219,7.5561004,0.26511553,0.25045475,0.04153884
1757686907955,9.112331,-8.039729,6.789956,0.26511553,0.25045475,0.04153884
1757686907957,9.112331,-8.039729,6.789956,0.35185838,0.27000242,0.034208454
1757686907975,9.758766,-8.1402855,7.153875,0.35185838,0.27000242,0.034208454
1757686907977,9.758766,-8.1402855,7.153875,0.44593164,0.3933972,0.032986723
1757686907995,8.432379,-7.2544312,7.132327,0.44593164,0.3933972,0.032986723
1757686907997,8.432379,-7.2544312,7.132327,0.5021312,0.5876524,0.06719518
1757686908015,6.8809357,-7.21373,6.6079965,0.5021312,0.5876524,0.06719518
1757686908017,6.8809357,-7.21373,6.6079965,0.33475417,0.6059783,0.0720821
1757686908035,7.2424603,-7.943961,6.117185,0.33475417,0.6059783,0.0720821
1757686908037,7.2424603,-7.943961,6.117185,0.14538592,0.40683624,-0.043982297
1757686908055,7.177817,-7.8386164,6.8426285,0.14538592,0.40683624,-0.043982297
1757686908058,7.177817,-7.8386164,6.8426285,0.23701571,0.38973203,-0.028099801
1757686908075,7.2568254,-7.627927,7.2185183,0.23701571,0.38973203,-0.028099801
1757686908077,7.2568254,-7.627927,7.2185183,0.33841935,0.39095375,-0.029321533
1757686908095,7.845799,-7.479486,7.493851,0.33841935,0.39095375,-0.029321533
1757686908096,7.845799,-7.479486,7.493851,0.3921755,0.3652974,-0.09162979
1757686908115,7.1873937,-7.261614,7.3430166,0.3921755,0.3652974,-0.09162979
1757686908116,7.1873937,-7.261614,7.3430166,0.38240165,0.39584067,-0.15882497
1757686908134,6.3111157,-6.3566055,6.825869,0.38240165,0.39584067,-0.15882497
1757686908135,6.3111157,-6.3566055,6.825869,0.36651915,0.37384954,-0.25167647
1757686908156,6.2249246,-5.662287,6.600814,0.36651915,0.37384954,-0.25167647
1757686908157,6.2249246,-5.662287,6.600814,0.35185838,0.3359759,-0.30298916
1757686908173,6.0166287,-4.9799395,6.009446,0.35185838,0.3359759,-0.30298916
1757686908174,6.0166287,-4.9799395,6.009446,0.24678956,0.3726278,-0.27000242
1757686908195,5.425261,-4.4460325,5.7748146,0.24678956,0.3726278,-0.27000242
1757686908198,5.425261,-4.4460325,5.7748146,0.16371189,0.42271876,-0.2003638
1757686908214,3.9193082,-4.0078936,5.801151,0.16371189,0.42271876,-0.2003638
1757686908216,3.9193082,-4.0078936,5.801151,0.0061086523,0.47525316,-0.14294247
1757686908237,3.5458126,-3.821146,4.9703627,0.0061086523,0.47525316,-0.14294247
1757686908239,3.5458126,-3.821146,4.9703627,0.17470746,0.37384954,-0.13927728
1757686908255,2.8993783,-3.4500446,3.8857894,0.17470746,0.37384954,-0.13927728
1757686908256,2.8993783,-3.4500446,3.8857894,0.5693264,0.2919936,-0.08674286
1757686908274,2.2026656,-2.054225,2.7868507,0.5693264,0.2919936,-0.08674286
1757686908276,2.2026656,-2.054225,2.7868507,0.7806858,0.2773328,0.012217305
1757686908294,1.958457,-1.283292,2.0757728,0.7806858,0.2773328,0.012217305
1757686908296,1.958457,-1.283292,2.0757728,0.59620446,0.23457226,0.058643065
1757686908315,1.6903064,-1.163582,1.9895816,0.59620446,0.23457226,0.058643065
1757686908317,1.6903064,-1.163582,1.9895816,0.1881465,0.17470746,0.058643065
1757686908334,1.3790601,-1.5275006,2.1068976,0.1881465,0.17470746,0.058643065
1757686908336,1.3790601,-1.5275006,2.1068976,0.018325957,0.1160644,0.040317107
1757686908356,1.3838485,-1.508347,2.4971523,0.018325957,0.1160644,0.040317107
1757686908357,1.3838485,-1.508347,2.4971523,0.059864793,0.06719518,0.004886922
1757686908375,1.6567876,-1.496376,1.9488802,0.059864793,0.06719518,0.004886922
1757686908376,1.6567876,-1.496376,1.9488802,0.39584067,0.042760566,0.0061086523
1757686908395,1.8507179,-1.103727,1.745373,0.39584067,0.042760566,0.0061086523
1757686908397,1.8507179,-1.103727,1.745373,0.5180137,0.14660765,-0.002443461
1757686908415,2.15957,-0.9959879,2.1332338,0.5180137,0.14660765,-0.002443461
1757686908417,2.15957,-0.9959879,2.1332338,0.4288274,0.29932398,0.032986723
1757686908435,2.5115175,-1.4820108,3.1627405,0.4288274,0.29932398,0.032986723
1757686908436,2.5115175,-1.4820108,3.1627405,0.1881465,0.39095375,0.040317107
1757686908454,2.6048915,-1.7908629,4.584896,0.1881465,0.39095375,0.040317107
1757686908455,2.6048915,-1.7908629,4.584896,-0.05497787,0.39950588,0.05375614
1757686908475,2.540248,-2.2625206,5.386954,-0.05497787,0.39950588,0.05375614
1757686908477,2.540248,-2.2625206,5.386954,-0.18203785,0.28588495,0.09407325
1757686908495,3.3255463,-2.9113493,6.3829417,-0.18203785,0.28588495,0.09407325
1757686908496,3.3255463,-2.9113493,6.3829417,-0.12950343,0.065973446,0.06963864
1757686908516,4.6351743,-3.2249897,7.0581064,-0.12950343,0.065973446,0.06963864
1757686908517,4.6351743,-3.2249897,7.0581064,-0.17715092,-0.18448131,0.0720821
1757686908534,5.511452,-3.821146,8.085219,-0.17715092,-0.18448131,0.0720821
1757686908535,5.511452,-3.821146,8.085219,-0.49846604,-0.31764993,0.035430185
1757686908556,5.765238,-5.475539,8.300697,-0.49846604,-0.31764993,0.035430185
1757686908557,5.765238,-5.475539,8.300697,-0.7635816,-0.408058,0.02565634
1757686908574,5.3486466,-5.875371,7.9942393,-0.7635816,-0.408058,0.02565634
1757686908575,5.3486466,-5.875371,7.9942393,-0.5852089,-0.3200934,0.017104227
1757686908595,5.5760956,-5.3845596,7.369353,-0.5852089,-0.3200934,0.017104227
1757686908597,5.5760956,-5.3845596,7.369353,-0.2406809,-0.2284636,-0.014660766
1757686908614,6.157887,-4.6519337,7.323863,-0.2406809,-0.2284636,-0.014660766
1757686908616,6.157887,-4.6519337,7.323863,0.047647487,-0.07696902,-0.015882496
1757686908634,5.6766524,-4.225766,7.1730285,0.047647487,-0.07696902,-0.015882496
1757686908636,5.6766524,-4.225766,7.1730285,0.19425514,0.12217305,0.042760566
1757686908654,4.951209,-3.5984852,7.055712,0.19425514,0.12217305,0.042760566
1757686908655,4.951209,-3.5984852,7.055712,0.22602014,0.19547687,0.06841691
1757686908673,4.3143516,-3.3063924,6.3326635,0.22602014,0.19547687,0.06841691
1757686908674,4.3143516,-3.3063924,6.3326635,0.204029,0.16126843,0.09407325
1757686908692,3.8187518,-2.944868,5.6407394,0.204029,0.16126843,0.09407325
1757686908692,3.8187518,-2.944868,5.6407394,0.07941248,0.062308256,0.065973446
1757686908714,3.4356794,-2.7030537,4.831499,0.07941248,0.062308256,0.065973446
1757686908715,3.4356794,-2.7030537,4.831499,-0.16615535,-0.07452556,0.036651913
1757686908732,3.0669725,-3.0502129,4.4843397,-0.16615535,-0.07452556,0.036651913
1757686908733,3.0669725,-3.0502129,4.4843397,-0.35430184,-0.11484267,0.04153884
1757686908756,2.896984,-3.1747115,4.465186,-0.35430184,-0.11484267,0.04153884
1757686908757,2.896984,-3.1747115,4.465186,-0.43860126,-0.1685988,0.037873644
1757686908775,2.779668,-2.9999347,4.369418,-0.43860126,-0.1685988,0.037873644
1757686908777,2.779668,-2.9999347,4.369418,-0.40317106,-0.2443461,0.056199603
1757686908796,2.669535,-2.7509377,3.9480386,-0.40317106,-0.2443461,0.056199603
1757686908797,2.669535,-2.7509377,3.9480386,-0.35063666,-0.32742378,0.04153884
1757686908815,2.992752,-2.4636335,3.8283286,-0.35063666,-0.32742378,0.04153884
1757686908816,2.992752,-2.4636335,3.8283286,-0.312763,-0.376293,0.03176499
1757686908836,3.2082303,-2.5570073,3.881001,-0.312763,-0.376293,0.03176499
1757686908838,3.2082303,-2.5570073,3.881001,-0.32620203,-0.35308012,0.028099801
1757686908856,3.0071173,-2.5785553,3.679888,-0.32620203,-0.35308012,0.028099801
1757686908858,3.0071173,-2.5785553,3.679888,-0.3481932,-0.31398472,0.030543262
1757686908877,2.801216,-2.873042,3.490746,-0.3481932,-0.31398472,0.030543262
1757686908878,2.801216,-2.873042,3.490746,-0.3408628,-0.2565634,-0.004886922
1757686908896,3.265691,-2.6862943,3.3734303,-0.3408628,-0.2565634,-0.004886922
1757686908898,3.265691,-2.6862943,3.3734303,-0.28221974,-0.204029,-0.04520403
1757686908917,3.4380736,-2.6240451,3.6296098,-0.28221974,-0.204029,-0.04520403
1757686908918,3.4380736,-2.6240451,3.6296098,-0.28221974,-0.12950343,-0.039095376
1757686908935,3.6248214,-2.72939,3.8857894,-0.28221974,-0.12950343,-0.039095376
1757686908937,3.6248214,-2.72939,3.8857894,-0.30665436,-0.09407325,0.015882496
1757686908957,3.8833952,-3.181894,4.249708,-0.30665436,-0.09407325,0.015882496
1757686908958,3.8833952,-3.181894,4.249708,-0.28710666,-0.10629055,0.064751714
1757686908977,3.9217024,-3.6750996,4.8722005,-0.28710666,-0.10629055,0.064751714
1757686908978,3.9217024,-3.6750996,4.8722005,-0.29565877,-0.15027285,0.039095376
1757686908997,3.8857894,-4.197036,5.0374002,-0.29565877,-0.15027285,0.039095376
1757686908998,3.8857894,-4.197036,5.0374002,-0.26267207,-0.20891592,-0.02076942
1757686909017,4.63278,-4.2544966,4.9081135,-0.26267207,-0.20891592,-0.02076942
1757686909018,4.63278,-4.2544966,4.9081135,-0.20769419,-0.2883284,-0.08674286
1757686909038,5.911284,-4.4556093,4.9775453,-0.20769419,-0.2883284,-0.08674286
1757686909039,5.911284,-4.4556093,4.9775453,-0.18936823,-0.3200934,-0.09773844
1757686909055,6.191406,-5.470751,5.7604494,-0.18936823,-0.3200934,-0.09773844
1757686909057,6.191406,-5.470751,5.7604494,-0.2284636,-0.14782938,-0.010995574
1757686909076,5.604826,-6.0357823,6.4906807,-0.2284636,-0.14782938,-0.010995574
1757686909078,5.604826,-6.0357823,6.4906807,-0.17959438,-0.08552113,0.032986723
1757686909096,5.638345,-6.3230867,6.6510925,-0.17959438,-0.08552113,0.032986723
1757686909099,5.638345,-6.3230867,6.6510925,-0.118507855,-0.21135938,0.030543262
1757686909116,6.220136,-6.694188,6.787562,-0.118507855,-0.21135938,0.030543262
1757686909118,6.220136,-6.694188,6.787562,-0.02565634,-0.3115413,-0.002443461
1757686909134,6.4667387,-6.7612257,6.8689647,-0.02565634,-0.3115413,-0.002443461
1757686909136,6.4667387,-6.7612257,6.8689647,0.040317107,-0.27366763,0.018325957
1757686909157,6.385336,-7.1754227,6.919243,0.040317107,-0.27366763,0.018325957
1757686909159,6.385336,-7.1754227,6.919243,0.030543262,-0.23457226,0.037873644
1757686909177,6.691794,-7.086837,6.694188,0.030543262,-0.23457226,0.037873644
1757686909180,6.691794,-7.086837,6.694188,-0.052534413,-0.23945917,0.0012217305
1757686909194,7.797915,-6.8761473,7.0221934,-0.052534413,-0.23945917,0.0012217305
1757686909195,7.797915,-6.8761473,7.0221934,-0.16249016,-0.23823744,-0.017104227
1757686909214,8.485051,-7.8865004,7.2424603,-0.16249016,-0.23823744,-0.017104227
1757686909215,8.485051,-7.8865004,7.2424603,-0.18570304,-0.10995574,-0.007330383
1757686909234,8.161834,-7.893683,7.180211,-0.18570304,-0.10995574,-0.007330383
1757686909235,8.161834,-7.893683,7.180211,-0.021991149,-0.06719518,0.056199603
1757686909253,8.176199,-7.716512,7.28795,-0.021991149,-0.06719518,0.056199603
1757686909254,8.176199,-7.716512,7.28795,0.10995574,-0.13683382,0.07574729
1757686909275,9.26556,-7.845799,7.6231384,0.10995574,-0.13683382,0.07574729
1757686909276,9.26556,-7.845799,7.6231384,0.012217305,-0.2321288,0.05009095
1757686909293,9.82341,-8.437167,7.8912888,0.012217305,-0.2321288,0.05009095
1757686909294,9.82341,-8.437167,7.8912888,-0.19303341,-0.2125811,0.02565634
1757686909314,9.540894,-9.217676,8.401254,-0.19303341,-0.2125811,0.02565634
1757686909315,9.540894,-9.217676,8.401254,-0.3359759,-0.17715092,0.042760566
1757686909334,9.291897,-9.495404,8.825027,-0.3359759,-0.17715092,0.042760566
1757686909335,9.291897,-9.495404,8.825027,-0.3005457,-0.23579398,0.02321288
1757686909355,9.825804,-9.821015,8.918402,-0.3005457,-0.23579398,0.02321288
1757686909356,9.825804,-9.821015,8.918402,-0.16493362,-0.37384954,-0.015882496
1757686909372,10.496181,-9.983821,8.920795,-0.16493362,-0.37384954,-0.015882496
1757686909373,10.496181,-9.983821,8.920795,-0.14660765,-0.37140608,-0.112399206
1757686909393,10.527305,-9.555259,8.532935,-0.14660765,-0.37140608,-0.112399206
1757686909393,10.527305,-9.555259,8.532935,-0.02443461,-0.24556783,-0.1282817
1757686909412,10.2735195,-9.346964,8.394072,-0.02443461,-0.24556783,-0.1282817
1757686909412,10.2735195,-9.346964,8.394072,0.039095376,-0.21624629,-0.11484267
1757686909432,10.512939,-9.232041,8.372523,0.039095376,-0.21624629,-0.11484267
1757686909432,10.512939,-9.232041,8.372523,0.032986723,-0.17715092,-0.14172074
1757686909451,10.79785,-8.985439,8.365341,0.032986723,-0.17715092,-0.14172074
1757686909452,10.79785,-8.985439,8.365341,0.04520403,-0.06719518,-0.18692477
1757686909472,9.7803135,-8.619126,8.418014,0.04520403,-0.06719518,-0.18692477
1757686909472,9.7803135,-8.619126,8.418014,0.13805555,0.12339478,-0.19181168
1757686909493,9.19134,-8.190564,8.0445175,0.13805555,0.12339478,-0.19181168
1757686909495,9.19134,-8.190564,8.0445175,0.25534168,0.19425514,-0.20647246
1757686909515,8.901642,-7.855376,7.7213006,0.25534168,0.19425514,-0.20647246
1757686909516,8.901642,-7.855376,7.7213006,0.34208453,0.23945917,-0.2321288
1757686909534,8.944737,-7.8146744,7.2328835,0.34208453,0.23945917,-0.2321288
1757686909535,8.944737,-7.8146744,7.2328835,0.376293,0.2761111,-0.2321288
1757686909555,8.549694,-6.825869,6.409278,0.376293,0.2761111,-0.2321288
1757686909557,8.549694,-6.825869,6.409278,0.25045475,0.40194935,-0.21135938
1757686909574,8.248025,-7.0245876,6.445191,0.25045475,0.40194935,-0.21135938
1757686909575,8.248025,-7.0245876,6.445191,0.08552113,0.3933972,-0.17592919
1757686909596,8.008605,-7.2113357,6.277597,0.08552113,0.3933972,-0.17592919
1757686909598,8.008605,-7.2113357,6.277597,0.035430185,0.37873647,-0.14172074
1757686909617,7.5944076,-6.9862804,6.2728086,0.035430185,0.37873647,-0.14172074
1757686909618,7.5944076,-6.9862804,6.2728086,0.06719518,0.34330627,-0.058643065
1757686909636,7.345411,-6.7612257,6.3326635,0.06719518,0.34330627,-0.058643065
1757686909638,7.345411,-6.7612257,6.3326635,0.061086524,0.33475417,-0.012217305
1757686909655,7.4866686,-6.576872,6.8210807,0.061086524,0.33475417,-0.012217305
1757686909657,7.4866686,-6.576872,6.8210807,0.04886922,0.30909783,0.008552114
1757686909677,7.457938,-6.4308257,7.029376,0.04886922,0.30909783,0.008552114
1757686909678,7.457938,-6.4308257,7.029376,0.04886922,0.28588495,0.08552113
1757686909697,7.6351094,-6.8402343,7.1083846,0.04886922,0.28588495,0.08552113
1757686909698,7.6351094,-6.8402343,7.1083846,0.047647487,0.23945917,0.12339478
1757686909717,7.2783732,-7.0581064,7.132327,0.047647487,0.23945917,0.12339478
1757686909718,7.2783732,-7.0581064,7.132327,0.04886922,0.21135938,0.09896017
1757686909736,6.7109475,-6.8689647,6.88333,0.04886922,0.21135938,0.09896017
1757686909738,6.7109475,-6.8689647,6.88333,0.09773844,0.17715092,0.04886922
1757686909756,6.030994,-5.374983,5.949591,0.09773844,0.17715092,0.04886922
1757686909757,6.030994,-5.374983,5.949591,0.21991149,0.10629055,-0.028099801
1757686909776,5.5497594,-4.402937,5.542577,0.21991149,0.10629055,-0.028099801
1757686909777,5.5497594,-4.402937,5.542577,0.3323107,0.09162979,-0.05131268
1757686909796,4.8602295,-3.5793316,5.5282116,0.3323107,0.09162979,-0.05131268
1757686909798,4.8602295,-3.5793316,5.5282116,0.4092797,0.10995574,-0.019547688
1757686909816,4.663905,-3.4117374,4.685453,0.4092797,0.10995574,-0.019547688
1757686909818,4.663905,-3.4117374,4.685453,0.4166101,-0.009773844,0.015882496
1757686909837,5.29358,-3.5649664,3.9839516,0.4166101,-0.009773844,0.015882496
1757686909838,5.29358,-3.5649664,3.9839516,0.32498032,-0.1563815,-0.058643065
1757686909857,4.9775453,-3.4931402,3.5458126,0.32498032,-0.1563815,-0.058643065
1757686909858,4.9775453,-3.4931402,3.5458126,0.2284636,-0.11728613,-0.06841691
1757686909877,3.9097314,-3.4141316,3.4691982,0.2284636,-0.11728613,-0.06841691
1757686909878,3.9097314,-3.4141316,3.4691982,0.14172074,-0.028099801,-0.10751228
1757686909897,2.743755,-2.8203697,3.3758245,0.14172074,-0.028099801,-0.10751228
1757686909898,2.743755,-2.8203697,3.3758245,0.14660765,0.029321533,-0.16982053
1757686909917,1.7836803,-1.5682021,3.0454245,0.14660765,0.029321533,-0.16982053
1757686909919,1.7836803,-1.5682021,3.0454245,0.3848451,-0.02565634,-0.14660765
1757686909937,1.8770541,-0.8403648,2.825158,0.3848451,-0.02565634,-0.14660765
1757686909938,1.8770541,-0.8403648,2.825158,0.3921755,-0.062308256,-0.09407325
1757686909959,1.934515,-0.90021986,2.542642,0.3921755,-0.062308256,-0.09407325
1757686909960,1.934515,-0.90021986,2.542642,0.2602286,-0.056199603,0.0061086523
1757686909976,2.1523874,-1.6136919,2.2529438,0.2602286,-0.056199603,0.0061086523
1757686909977,2.1523874,-1.6136919,2.2529438,0.16493362,0.028099801,0.07696902
1757686909997,2.3870192,-1.8986019,2.3008277,0.16493362,0.028099801,0.07696902
1757686909999,2.3870192,-1.8986019,2.3008277,0.16493362,0.118507855,0.13561209
1757686910015,2.7006595,-2.1906946,2.3056161,0.16493362,0.118507855,0.13561209
1757686910017,2.7006595,-2.1906946,2.3056161,0.31764993,0.27000242,0.15149458
1757686910035,2.9640217,-1.9440918,2.731784,0.31764993,0.27000242,0.15149458
1757686910037,2.9640217,-1.9440918,2.731784,0.41538838,0.453262,0.15882497
1757686910057,3.4141316,-1.9991584,3.4811692,0.41538838,0.453262,0.15882497
1757686910059,3.4141316,-1.9991584,3.4811692,0.408058,0.57787853,0.15271631
1757686910077,5.231331,-1.7429788,4.5657425,0.408058,0.57787853,0.15271631
1757686910078,5.231331,-1.7429788,4.5657425,0.14782938,0.5314528,0.1563815
1757686910097,7.0581064,-1.9177556,5.7724204,0.14782938,0.5314528,0.1563815
1757686910098,7.0581064,-1.9177556,5.7724204,-0.172264,0.5534439,0.20525073
1757686910118,6.7971387,-2.861071,7.4746976,-0.172264,0.5534439,0.20525073
1757686910119,6.7971387,-2.861071,7.4746976,-0.55955255,0.657291,0.30787608
1757686910135,3.7541082,-4.5034933,8.209718,-0.55955255,0.657291,0.30787608
1757686910137,3.7541082,-4.5034933,8.209718,-0.8772025,0.47403142,0.36774087
1757686910158,1.8555063,-6.3685765,7.374141,-0.8772025,0.47403142,0.36774087
1757686910160,1.8555063,-6.3685765,7.374141,-0.95294976,-0.040317107,0.2565634
1757686910175,3.3135753,-7.029376,5.973533,-0.95294976,-0.040317107,0.2565634
1757686910176,3.3135753,-7.029376,5.973533,-0.625526,-0.34697145,0.16249016
1757686910195,5.9783216,-5.7963624,6.2249246,-0.625526,-0.34697145,0.16249016
1757686910197,5.9783216,-5.7963624,6.2249246,-0.18081611,-0.4728097,0.15393804
1757686910215,6.10282,-4.805163,6.8665705,-0.18081611,-0.4728097,0.15393804
1757686910218,6.10282,-4.805163,6.8665705,-0.14538592,-0.22724187,0.22113322
1757686910234,4.685453,-5.3462524,7.1107793,-0.14538592,-0.22724187,0.22113322
1757686910235,4.685453,-5.3462524,7.1107793,-0.15149458,-0.111177474,0.3323107
1757686910254,5.1259856,-4.9559975,6.6606693,-0.15149458,-0.111177474,0.3323107
1757686910255,5.1259856,-4.9559975,6.6606693,0.04520403,-0.27122417,0.29077184
1757686910275,5.57849,-3.9480386,6.38773,0.04520403,-0.27122417,0.29077184
1757686910276,5.57849,-3.9480386,6.38773,0.21502456,-0.2724459,0.25411993
1757686910294,5.461174,-3.3782187,5.9998693,0.21502456,-0.2724459,0.25411993
1757686910295,5.461174,-3.3782187,5.9998693,0.2003638,-0.22602014,0.20158553
1757686910317,5.1116204,-3.3135753,5.707777,0.2003638,-0.22602014,0.20158553
1757686910318,5.1116204,-3.3135753,5.707777,0.029321533,-0.16493362,0.12705997
1757686910333,4.426879,-3.1771057,5.499481,0.029321533,-0.16493362,0.12705997
1757686910334,4.426879,-3.1771057,5.499481,-0.12095132,-0.13194689,0.06719518
1757686910354,3.6367924,-2.767697,5.1116204,-0.12095132,-0.13194689,0.06719518
1757686910354,3.6367924,-2.767697,5.1116204,-0.18692477,-0.16126843,0.030543262
1757686910373,3.3973722,-2.5450363,4.5920787,-0.18692477,-0.16126843,0.030543262
1757686910374,3.3973722,-2.5450363,4.5920787,-0.23701571,-0.24556783,-0.004886922
1757686910395,3.2465374,-2.6240451,4.0581717,-0.23701571,-0.24556783,-0.004886922
1757686910396,3.2465374,-2.6240451,4.0581717,-0.23090707,-0.2773328,-0.035430185
1757686910416,3.1651347,-2.4109612,3.359065,-0.23090707,-0.2773328,-0.035430185
1757686910418,3.1651347,-2.4109612,3.359065,-0.1563815,-0.21991149,-0.004886922
1757686910435,4.261679,-1.757344,2.0254946,-0.1563815,-0.21991149,-0.004886922
1757686910436,4.261679,-1.757344,2.0254946,-0.2125811,-0.24190263,0.021991149
1757686910457,4.0653543,-2.147599,1.6017209,-0.2125811,-0.24190263,0.021991149
1757686910458,4.0653543,-2.147599,1.6017209,-0.3555236,-0.18570304,0.034208454
1757686910475,2.1883004,-2.8299465,1.4580688,-0.3555236,-0.18570304,0.034208454
1757686910477,2.1883004,-2.8299465,1.4580688,-0.50946164,-0.004886922,0.039095376
1757686910495,1.2378023,-3.2513258,2.4851813,-0.50946164,-0.004886922,0.039095376
1757686910496,1.2378023,-3.2513258,2.4851813,-0.54733527,0.07574729,0.07086037
1757686910518,1.7956513,-3.3614593,3.4572272,-0.54733527,0.07574729,0.07086037
1757686910519,1.7956513,-3.3614593,3.4572272,-0.6291912,0.029321533,0.073303826
1757686910536,2.5474305,-3.5889084,4.271256,-0.6291912,0.029321533,0.073303826
1757686910537,2.5474305,-3.5889084,4.271256,-0.70371675,-0.09407325,0.1160644
1757686910557,3.169923,-4.3718123,4.63278,-0.70371675,-0.09407325,0.1160644
1757686910559,3.169923,-4.3718123,4.63278,-0.6377433,-0.25045475,0.13439035
1757686910575,4.0222588,-4.9296613,4.927267,-0.6377433,-0.25045475,0.13439035
1757686910576,4.0222588,-4.9296613,4.927267,-0.4972443,-0.4129449,0.12583824
1757686910598,5.023035,-5.1523223,4.8482585,-0.4972443,-0.4129449,0.12583824
1757686910599,5.023035,-5.1523223,4.8482585,-0.22968534,-0.48624873,0.09162979
1757686910617,5.6910176,-4.900931,4.807557,-0.22968534,-0.48624873,0.09162979
1757686910618,5.6910176,-4.900931,4.807557,-0.15027285,-0.41905355,0.03176499
1757686910638,6.133945,-4.9679685,5.133168,-0.15027285,-0.41905355,0.03176499
1757686910639,6.133945,-4.9679685,5.133168,-0.057421334,-0.25778514,-0.012217305
1757686910657,5.781997,-5.2049947,5.5617304,-0.057421334,-0.25778514,-0.012217305
1757686910658,5.781997,-5.2049947,5.5617304,0.042760566,-0.08307768,-0.039095376
1757686910677,5.3725886,-5.0421886,5.9807158,0.042760566,-0.08307768,-0.039095376
1757686910678,5.3725886,-5.0421886,5.9807158,0.118507855,-0.015882496,-0.06719518
1757686910695,5.758055,-5.281609,6.351817,0.118507855,-0.015882496,-0.06719518
1757686910696,5.758055,-5.281609,6.351817,0.09162979,-0.04520403,-0.058643065
1757686910716,6.885724,-6.1195793,6.232107,0.09162979,-0.04520403,-0.058643065
1757686910717,6.885724,-6.1195793,6.232107,0.02076942,-0.12461651,-0.062308256
1757686910734,7.249643,-6.7684083,5.746084,0.02076942,-0.12461651,-0.062308256
1757686910735,7.249643,-6.7684083,5.746084,0.004886922,-0.14905111,-0.043982297
1757686910755,6.787562,-7.1873937,5.7748146,0.004886922,-0.14905111,-0.043982297
1757686910757,6.787562,-7.1873937,5.7748146,0.09162979,-0.15149458,-0.030543262
1757686910775,7.4387846,-7.043741,5.9902925,0.09162979,-0.15149458,-0.030543262
1757686910776,7.4387846,-7.043741,5.9902925,0.10995574,-0.17837265,-0.07819075
1757686910795,7.8888946,-7.920019,6.2943563,0.10995574,-0.17837265,-0.07819075
1757686910796,7.8888946,-7.920019,6.2943563,-0.042760566,-0.10873401,-0.06963864
1757686910813,7.4028716,-9.222465,6.2488666,-0.042760566,-0.10873401,-0.06963864
1757686910813,7.4028716,-9.222465,6.2488666,-0.1563815,-0.021991149,-0.019547688
1757686910835,7.029376,-9.43076,6.4523735,-0.1563815,-0.021991149,-0.019547688
1757686910835,7.029376,-9.43076,6.4523735,-0.17959438,-0.07086037,-0.0061086523
1757686910855,7.73806,-9.148245,7.2951326,-0.17959438,-0.07086037,-0.0061086523
1757686910856,7.73806,-9.148245,7.2951326,-0.05375614,-0.16493362,-0.056199603
1757686910877,8.690952,-8.8777,8.137892,-0.05375614,-0.16493362,-0.056199603
1757686910878,8.690952,-8.8777,8.137892,0.040317107,-0.204029,-0.056199603
1757686910895,8.566454,-8.949526,8.133103,0.040317107,-0.204029,-0.056199603
1757686910896,8.566454,-8.949526,8.133103,0.004886922,-0.17348573,-0.029321533
1757686910916,9.289502,-9.176975,7.675811,0.004886922,-0.17348573,-0.029321533
1757686910918,9.289502,-9.176975,7.675811,-0.087964594,-0.22479841,-0.02321288
1757686910935,11.377247,-10.280702,8.135497,-0.087964594,-0.22479841,-0.02321288
1757686910937,11.377247,-10.280702,8.135497,-0.23579398,-0.16249016,-0.080634214
1757686910956,10.548853,-10.747571,9.006987,-0.23579398,-0.16249016,-0.080634214
1757686910957,10.548853,-10.747571,9.006987,-0.09285152,-0.035430185,-0.096516706
1757686910977,8.913613,-10.04607,8.851364,-0.09285152,-0.035430185,-0.096516706
1757686910978,8.913613,-10.04607,8.851364,0.09773844,-0.017104227,-0.13072516
1757686910995,9.3733,-9.387665,8.39886,0.09773844,-0.017104227,-0.13072516
1757686910996,9.3733,-9.387665,8.39886,0.16615535,-0.112399206,-0.15760323
1757686911017,10.244789,-10.019734,8.23366,0.16615535,-0.112399206,-0.15760323
1757686911018,10.244789,-10.019734,8.23366,0.18936823,-0.081855945,-0.12583824
1757686911037,10.108319,-10.029311,8.226477,0.18936823,-0.081855945,-0.12583824
1757686911038,10.108319,-10.029311,8.226477,0.2565634,0.03176499,-0.112399206
1757686911057,9.339781,-9.437943,8.269572,0.2565634,0.03176499,-0.112399206
1757686911059,9.339781,-9.437943,8.269572,0.36285394,0.05497787,-0.10629055
1757686911076,8.846576,-8.803479,7.6949644,0.36285394,0.05497787,-0.10629055
1757686911078,8.846576,-8.803479,7.6949644,0.3652974,0.040317107,-0.1160644
1757686911096,8.942344,-8.4587145,7.120356,0.3652974,0.040317107,-0.1160644
1757686911098,8.942344,-8.4587145,7.120356,0.22724187,0.05009095,-0.096516706
1757686911118,9.337387,-8.564059,7.0700774,0.22724187,0.05009095,-0.096516706
1757686911120,9.337387,-8.564059,7.0700774,0.07452556,0.13316862,-0.065973446
1757686911136,8.35337,-8.396465,7.1347213,0.07452556,0.13316862,-0.065973446
1757686911138,8.35337,-8.396465,7.1347213,0.0842994,0.21502456,-0.039095376
1757686911158,7.8793178,-8.300697,7.2448545,0.0842994,0.21502456,-0.039095376
1757686911159,7.8793178,-8.300697,7.2448545,0.15027285,0.17715092,-0.009773844
1757686911175,8.137892,-8.0684595,6.8689647,0.15027285,0.17715092,-0.009773844
1757686911176,8.137892,-8.0684595,6.8689647,0.17104226,0.10873401,-0.0036651916
1757686911198,8.327033,-7.9272017,6.909666,0.17104226,0.10873401,-0.0036651916
1757686911201,8.327033,-7.9272017,6.909666,0.20525073,0.103847094,-0.0061086523
1757686911217,7.9224133,-7.785944,7.065289,0.20525073,0.103847094,-0.0061086523
1757686911219,7.9224133,-7.785944,7.065289,0.28344148,0.13561209,-0.021991149
1757686911237,7.644686,-7.491457,6.6103907,0.28344148,0.13561209,-0.021991149
1757686911238,7.644686,-7.491457,6.6103907,0.36163223,0.13439035,-0.017104227
1757686911257,7.6494746,-7.398083,6.5146227,0.36163223,0.13439035,-0.017104227
1757686911258,7.6494746,-7.398083,6.5146227,0.38606682,0.17104226,0.015882496
1757686911277,7.5441294,-7.2927384,6.658275,0.38606682,0.17104226,0.015882496
1757686911279,7.5441294,-7.2927384,6.658275,0.37507126,0.2565634,0.05497787
1757686911296,6.327875,-6.813898,6.9407907,0.37507126,0.2565634,0.05497787
1757686911297,6.327875,-6.813898,6.9407907,0.52778757,0.3213151,0.09896017
1757686911317,6.0525417,-5.861006,6.361394,0.52778757,0.3213151,0.09896017
1757686911318,6.0525417,-5.861006,6.361394,0.5839872,0.28710666,0.05009095
1757686911337,6.3589997,-5.085284,6.1243677,0.5839872,0.28710666,0.05009095
1757686911339,6.3589997,-5.085284,6.1243677,0.6047566,0.28955013,0.021991149
1757686911357,6.397307,-4.606444,5.8586116,0.6047566,0.28955013,0.021991149
1757686911358,6.397307,-4.606444,5.8586116,0.54611355,0.3323107,0.02321288
1757686911376,6.172252,-4.5178585,5.66947,0.54611355,0.3323107,0.02321288
1757686911378,6.172252,-4.5178585,5.66947,0.4642576,0.37873647,0.06963864
1757686911397,5.7029886,-4.429273,5.837064,0.4642576,0.37873647,0.06963864
1757686911398,5.7029886,-4.429273,5.837064,0.31642818,0.37384954,0.09162979
1757686911416,5.3007627,-4.3239284,5.5162406,0.31642818,0.37384954,0.09162979
1757686911418,5.3007627,-4.3239284,5.5162406,0.20525073,0.35918877,0.10262536
1757686911437,4.560954,-4.2042184,5.595249,0.20525073,0.35918877,0.10262536
1757686911438,4.560954,-4.2042184,5.595249,0.17592919,0.34574974,0.10995574
1757686911456,3.2106245,-3.655946,4.39336,0.17592919,0.34574974,0.10995574
1757686911457,3.2106245,-3.655946,4.39336,0.34208453,0.22113322,0.10873401
1757686911477,4.0701427,-2.5187001,3.9312792,0.34208453,0.22113322,0.10873401
1757686911478,4.0701427,-2.5187001,3.9312792,0.28710666,0.14538592,0.1160644
1757686911497,4.9416323,-2.408567,4.158728,0.28710666,0.14538592,0.1160644
1757686911498,4.9416323,-2.408567,4.158728,-0.02687807,0.26145032,0.14294247
1757686911518,4.1539397,-3.6703112,4.307169,-0.02687807,0.26145032,0.14294247
1757686911519,4.1539397,-3.6703112,4.307169,-0.2724459,0.5338962,0.14538592
1757686911537,2.779668,-4.2760444,4.3646297,-0.2724459,0.5338962,0.14538592
1757686911539,2.779668,-4.2760444,4.3646297,-0.10140363,0.74281216,0.080634214
1757686911559,2.2697031,-3.809175,3.6296098,-0.10140363,0.74281216,0.080634214
1757686911561,2.2697031,-3.809175,3.6296098,0.41172317,0.7819075,-0.02565634
1757686911576,2.4708161,-2.5617957,2.858677,0.41172317,0.7819075,-0.02565634
1757686911578,2.4708161,-2.5617957,2.858677,0.79901177,0.7648033,-0.11362094
1757686911597,2.2242134,-1.6208745,2.0207062,0.79901177,0.7648033,-0.11362094
1757686911599,2.2242134,-1.6208745,2.0207062,0.8491027,0.7965683,-0.13561209
1757686911618,1.6663644,-1.376666,1.6376339,0.8491027,0.7965683,-0.13561209
1757686911619,1.6663644,-1.376666,1.6376339,0.5705481,0.79901177,-0.12095132
1757686911638,1.9393034,-1.091756,1.9177556,0.5705481,0.79901177,-0.12095132
1757686911640,1.9393034,-1.091756,1.9177556,0.36041048,0.73914695,-0.118507855
1757686911657,2.1667526,-1.0534488,2.7126305,0.36041048,0.73914695,-0.118507855
1757686911659,2.1667526,-1.0534488,2.7126305,0.19181168,0.73548174,-0.10140363
1757686911678,2.2409728,-1.6663644,3.7684734,0.19181168,0.73548174,-0.10140363
1757686911679,2.2409728,-1.6663644,3.7684734,0.05009095,0.6743952,-0.07696902
1757686911699,2.6719291,-2.396596,4.9344497,0.05009095,0.6743952,-0.07696902
1757686911701,2.6719291,-2.396596,4.9344497,-0.0842994,0.5216789,-0.06841691
1757686911718,3.145981,-3.0238767,6.1866174,-0.0842994,0.5216789,-0.06841691
1757686911719,3.145981,-3.0238767,6.1866174,-0.13683382,0.344528,-0.052534413
1757686911738,3.5290532,-3.3901896,7.275979,-0.13683382,0.344528,-0.052534413
1757686911740,3.5290532,-3.3901896,7.275979,-0.17715092,0.10751228,-0.04886922
1757686911759,3.8618474,-3.5338416,7.965509,-0.17715092,0.10751228,-0.04886922
1757686911760,3.8618474,-3.5338416,7.965509,-0.21868975,-0.17959438,-0.0720821
1757686911778,4.1802764,-4.0198646,7.881712,-0.21868975,-0.17959438,-0.0720821
1757686911779,4.1802764,-4.0198646,7.881712,-0.34330627,-0.4373795,-0.1160644
1757686911799,4.462792,-4.4220905,7.9942393,-0.34330627,-0.4373795,-0.1160644
1757686911800,4.462792,-4.4220905,7.9942393,-0.5338962,-0.48258355,-0.09773844
1757686911817,5.1020436,-4.522647,8.109161,-0.5338962,-0.48258355,-0.09773844
1757686911819,5.1020436,-4.522647,8.109161,-0.5693264,-0.37140608,-0.034208454
1757686911839,5.2840033,-5.209783,8.147469,-0.5693264,-0.37140608,-0.034208454
1757686911840,5.2840033,-5.209783,8.147469,-0.43493605,-0.23579398,0.017104227
1757686911856,4.84347,-5.6982,7.807492,-0.43493605,-0.23579398,0.017104227
1757686911857,4.84347,-5.6982,7.807492,-0.15027285,-0.14049901,0.052534413
1757686911875,4.7309427,-4.7046065,7.350199,-0.15027285,-0.14049901,0.052534413
1757686911876,4.7309427,-4.7046065,7.350199,0.1966986,-0.05497787,0.04153884
1757686911895,5.0637364,-3.5338416,7.074866,0.1966986,-0.05497787,0.04153884
1757686911896,5.0637364,-3.5338416,7.074866,0.39461896,0.0012217305,0.043982297
1757686911917,4.853047,-3.0023289,6.787562,0.39461896,0.0012217305,0.043982297
1757686911919,4.853047,-3.0023289,6.787562,0.32498032,0.047647487,0.056199603
1757686911933,4.5441947,-3.0190883,6.4523735,0.32498032,0.047647487,0.056199603
1757686911934,4.5441947,-3.0190883,6.4523735,0.12583824,0.02687807,0.05131268
1757686911954,5.035006,-3.3806129,6.2345014,0.12583824,0.02687807,0.05131268
1757686911954,5.035006,-3.3806129,6.2345014,-0.23945917,-0.042760566,-0.02443461
1757686911974,4.644751,-3.3542767,6.157887,-0.23945917,-0.042760566,-0.02443461
1757686911975,4.644751,-3.3542767,6.157887,-0.47647488,-0.034208454,-0.04153884
1757686911994,4.098873,-3.4380736,5.949591,-0.47647488,-0.034208454,-0.04153884
1757686911994,4.098873,-3.4380736,5.949591,-0.6768387,-0.06352998,-0.0842994
1757686912014,3.8259344,-3.6032736,5.803545,-0.6768387,-0.06352998,-0.0842994
1757686912014,3.8259344,-3.6032736,5.803545,-0.7440339,-0.14172074,-0.12339478
1757686912034,3.8426938,-3.8738184,5.853823,-0.7440339,-0.14172074,-0.12339478
1757686912034,3.8426938,-3.8738184,5.853823,-0.7012733,-0.20525073,-0.12705997
1757686912055,3.821146,-4.072537,5.935226,-0.7012733,-0.20525073,-0.12705997
1757686912056,3.821146,-4.072537,5.935226,-0.65240407,-0.25045475,-0.118507855
1757686912077,3.5649664,-3.9097314,5.7125654,-0.65240407,-0.25045475,-0.118507855
1757686912078,3.5649664,-3.9097314,5.7125654,-0.57787853,-0.31031954,-0.12461651
1757686912096,3.3399115,-3.550601,5.12838,-0.57787853,-0.31031954,-0.12461651
1757686912098,3.3399115,-3.550601,5.12838,-0.49113566,-0.37873647,-0.14660765
1757686912117,3.3758245,-3.1794999,4.7405195,-0.49113566,-0.37873647,-0.14660765
1757686912118,3.3758245,-3.1794999,4.7405195,-0.4361578,-0.39584067,-0.17348573
1757686912136,3.347094,-2.861071,4.2305546,-0.4361578,-0.39584067,-0.17348573
1757686912137,3.347094,-2.861071,4.2305546,-0.39828414,-0.32986724,-0.16249016
1757686912157,3.3614593,-3.1004913,3.9504328,-0.39828414,-0.32986724,-0.16249016
1757686912158,3.3614593,-3.1004913,3.9504328,-0.34208453,-0.2773328,-0.11728613
1757686912175,3.2680852,-3.4332852,3.4931402,-0.34208453,-0.2773328,-0.11728613
1757686912176,3.2680852,-3.4332852,3.4931402,-0.26633725,-0.2003638,-0.103847094
1757686912193,3.466804,-3.1651347,3.229778,-0.26633725,-0.2003638,-0.103847094
1757686912194,3.466804,-3.1651347,3.229778,-0.095294975,-0.119729586,-0.11362094
1757686912214,3.6391866,-2.7485435,3.335123,-0.095294975,-0.119729586,-0.11362094
1757686912215,3.6391866,-2.7485435,3.335123,-0.014660766,-0.056199603,-0.095294975
1757686912236,3.466804,-2.7461493,3.3925838,-0.014660766,-0.056199603,-0.095294975
1757686912237,3.466804,-2.7461493,3.3925838,-0.09162979,-0.04642576,-0.059864793
1757686912256,3.667917,-2.657564,3.8786068,-0.09162979,-0.04642576,-0.059864793
1757686912258,3.667917,-2.657564,3.8786068,-0.23579398,-0.10140363,-0.002443461
1757686912278,4.173094,-2.870648,4.6375685,-0.23579398,-0.10140363,-0.002443461
1757686912280,4.173094,-2.870648,4.6375685,-0.5021312,-0.11728613,0.042760566
1757686912298,3.9624038,-3.8067808,5.506664,-0.5021312,-0.11728613,0.042760566
1757686912299,3.9624038,-3.8067808,5.506664,-0.7965683,0.0036651916,0.09040806
1757686912318,2.8658595,-5.080496,5.5521536,-0.7965683,0.0036651916,0.09040806
1757686912319,2.8658595,-5.080496,5.5521536,-0.5681047,0.06841691,0.09773844
1757686912336,3.6487634,-5.142745,5.341464,-0.5681047,0.06841691,0.09773844
1757686912337,3.6487634,-5.142745,5.341464,-0.17470746,-0.0012217305,0.05131268
1757686912358,4.685453,-4.972757,5.327099,-0.17470746,-0.0012217305,0.05131268
1757686912360,4.685453,-4.972757,5.327099,-0.014660766,0.0036651916,0.0720821
1757686912377,4.5561657,-4.903325,5.7245364,-0.014660766,0.0036651916,0.0720821
1757686912378,4.5561657,-4.903325,5.7245364,-0.0012217305,0.095294975,0.10873401
1757686912399,4.0078936,-5.2002063,5.920861,-0.0012217305,0.095294975,0.10873401
1757686912400,4.0078936,-5.2002063,5.920861,-0.02321288,0.13316862,0.14905111
1757686912418,4.3263226,-5.509058,5.9926867,-0.02321288,0.13316862,0.14905111
1757686912419,4.3263226,-5.509058,5.9926867,0.002443461,0.009773844,0.14905111
1757686912437,5.2002063,-6.0860605,5.9160724,0.002443461,0.009773844,0.14905111
1757686912438,5.2002063,-6.0860605,5.9160724,0.036651913,-0.08674286,0.112399206
1757686912455,5.5282116,-6.136339,5.693412,0.036651913,-0.08674286,0.112399206
1757686912456,5.5282116,-6.136339,5.693412,0.07452556,-0.08307768,0.065973446
1757686912476,5.566519,-5.7125654,6.232107,0.07452556,-0.08307768,0.065973446
1757686912477,5.566519,-5.7125654,6.232107,0.062308256,-0.014660766,0.10140363
1757686912495,6.528988,-6.4260373,6.7324953,0.062308256,-0.014660766,0.10140363
1757686912496,6.528988,-6.4260373,6.7324953,-0.11728613,-0.105068825,0.15515977
1757686912516,6.8881183,-7.314286,6.7971387,-0.11728613,-0.105068825,0.15515977
1757686912518,6.8881183,-7.314286,6.7971387,-0.26511553,-0.17959438,0.14782938
1757686912536,6.1123967,-7.5201874,6.7564373,-0.26511553,-0.17959438,0.14782938
1757686912537,6.1123967,-7.5201874,6.7564373,-0.2565634,-0.16126843,0.05497787
1757686912556,6.0262055,-7.728483,7.2568254,-0.2565634,-0.16126843,0.05497787
1757686912557,6.0262055,-7.728483,7.2568254,-0.14294247,-0.10995574,-0.037873644
1757686912574,6.775591,-7.9224133,7.776367,-0.14294247,-0.10995574,-0.037873644
1757686912575,6.775591,-7.9224133,7.776367,-0.07086037,-0.028099801,-0.07696902
1757686912595,6.9383965,-7.9702973,7.9990277,-0.07086037,-0.028099801,-0.07696902
1757686912596,6.9383965,-7.9702973,7.9990277,-0.035430185,-0.0012217305,-0.057421334
1757686912616,6.921637,-7.61835,7.608773,-0.035430185,-0.0012217305,-0.057421334
1757686912617,6.921637,-7.61835,7.608773,-0.14172074,-0.10140363,-0.09162979
1757686912638,7.965509,-8.00621,7.7332716,-0.14172074,-0.10140363,-0.09162979
1757686912639,7.965509,-8.00621,7.7332716,-0.41783184,-0.14538592,-0.23090707
1757686912656,7.771579,-8.456321,8.523358,-0.41783184,-0.14538592,-0.23090707
1757686912657,7.771579,-8.456321,8.523358,-0.6035349,0.13561209,-0.3640757
1757686912676,8.264784,-8.532935,8.523358,-0.6035349,0.13561209,-0.3640757
1757686912677,8.264784,-8.532935,8.523358,-0.31031954,0.21991149,-0.4288274
1757686912697,8.887277,-8.53054,8.432379,-0.31031954,0.21991149,-0.4288274
1757686912698,8.887277,-8.53054,8.432379,-0.03176499,0.20769419,-0.43982297
1757686912717,9.241618,-8.23366,7.723695,-0.03176499,0.20769419,-0.43982297
1757686912718,9.241618,-8.23366,7.723695,-0.039095376,0.1685988,-0.3494149
1757686912737,9.655815,-8.932767,7.8625584,-0.039095376,0.1685988,-0.3494149
1757686912738,9.655815,-8.932767,7.8625584,-0.32986724,0.112399206,-0.27855456
1757686912757,8.935161,-10.115502,9.303867,-0.32986724,0.112399206,-0.27855456
1757686912758,8.935161,-10.115502,9.303867,-0.5852089,0.057421334,-0.27855456
1757686912778,7.5465236,-11.777079,9.885659,-0.5852089,0.057421334,-0.27855456
1757686912779,7.5465236,-11.777079,9.885659,-0.53878313,-0.07819075,-0.28344148
1757686912799,8.020576,-12.636597,9.370906,-0.53878313,-0.07819075,-0.28344148
1757686912800,8.020576,-12.636597,9.370906,-0.11728613,-0.3811799,-0.31764993
1757686912819,8.820239,-11.08276,8.76996,-0.11728613,-0.3811799,-0.31764993
1757686912820,8.820239,-11.08276,8.76996,0.6059783,-0.47647488,-0.26267207
1757686912838,8.465898,-8.135497,9.045294,0.6059783,-0.47647488,-0.26267207
1757686912840,8.465898,-8.135497,9.045294,0.59986967,-0.30543262,-0.12950343
1757686912858,8.796297,-7.668628,8.990228,0.59986967,-0.30543262,-0.12950343
1757686912859,8.796297,-7.668628,8.990228,0.4007276,-0.17348573,0.007330383
1757686912880,9.102755,-8.276755,9.018958,0.4007276,-0.17348573,0.007330383
1757686912881,9.102755,-8.276755,9.018958,0.32498032,-0.05131268,0.105068825
1757686912897,8.42759,-9.038112,8.403648,0.32498032,-0.05131268,0.105068825
1757686912898,8.42759,-9.038112,8.403648,0.5021312,0.07819075,0.13316862
1757686912919,7.9750857,-9.682152,7.81228,0.5021312,0.07819075,0.13316862
1757686912920,7.9750857,-9.682152,7.81228,0.74281216,0.12095132,0.111177474
1757686912938,8.307879,-8.635885,7.4986396,0.74281216,0.12095132,0.111177474
1757686912939,8.307879,-8.635885,7.4986396,0.93951076,0.18692477,-0.007330383
1757686912958,8.540117,-7.237672,7.0844426,0.93951076,0.18692477,-0.007330383
1757686912959,8.540117,-7.237672,7.0844426,1.1630874,0.24801129,-0.05009095
1757686912979,8.415619,-6.069301,6.6510925,1.1630874,0.24801129,-0.05009095
1757686912980,8.415619,-6.069301,6.6510925,0.9431759,0.31642818,-0.081855945
1757686912999,7.967903,-6.2752028,6.7109475,0.9431759,0.31642818,-0.081855945
1757686913000,7.967903,-6.2752028,6.7109475,0.14660765,0.3359759,-0.06352998
1757686913018,7.465121,-7.261614,7.1059904,0.14660765,0.3359759,-0.06352998
1757686913019,7.465121,-7.261614,7.1059904,-0.2284636,0.24801129,-0.064751714
1757686913038,7.314286,-8.133103,7.4483614,-0.2284636,0.24801129,-0.064751714
1757686913039,7.314286,-8.133103,7.4483614,-0.15027285,0.10873401,-0.11484267
1757686913059,7.5106106,-7.429208,7.5920134,-0.15027285,0.10873401,-0.11484267
1757686913060,7.5106106,-7.429208,7.5920134,0.18325958,0.013439035,-0.16737708
1757686913079,7.3047094,-6.215348,7.6015906,0.18325958,0.013439035,-0.16737708
1757686913081,7.3047094,-6.215348,7.6015906,0.41172317,0.021991149,-0.16737708
1757686913098,6.694188,-5.571307,7.656657,0.41172317,0.021991149,-0.16737708
1757686913099,6.694188,-5.571307,7.656657,0.44837508,0.04886922,-0.10629055
1757686913119,5.861006,-5.257667,7.632715,0.44837508,0.04886922,-0.10629055
1757686913121,5.861006,-5.257667,7.632715,0.40561453,0.06352998,-0.02076942
1757686913138,5.583278,-5.2887917,7.3765354,0.40561453,0.06352998,-0.02076942
1757686913139,5.583278,-5.2887917,7.3765354,0.3885103,0.02687807,0.036651913
1757686913159,5.5737014,-4.5154643,6.751649,0.3885103,0.02687807,0.036651913
1757686913161,5.5737014,-4.5154643,6.751649,0.24312437,0.039095376,0.040317107
1757686913177,5.243302,-4.2042184,5.6646814,0.24312437,0.039095376,0.040317107
1757686913178,5.243302,-4.2042184,5.6646814,0.0012217305,0.15393804,0.058643065
1757686913199,5.281609,-5.1810527,5.425261,0.0012217305,0.15393804,0.058643065
1757686913201,5.281609,-5.1810527,5.425261,0.28588495,0.28588495,0.062308256
1757686913219,4.733337,-4.027047,5.793968,0.28588495,0.28588495,0.062308256
1757686913221,4.733337,-4.027047,5.793968,0.7330383,0.408058,0.07819075
1757686913239,4.2521024,-2.5689783,5.094861,0.7330383,0.408058,0.07819075
1757686913241,4.2521024,-2.5689783,5.094861,0.85154617,0.39461896,0.059864793
1757686913262,3.9743748,-1.8124107,4.211401,0.85154617,0.39461896,0.059864793
1757686913263,3.9743748,-1.8124107,4.211401,0.6743952,0.3213151,0.034208454
1757686913280,3.3997664,-1.6376339,3.6415808,0.6743952,0.3213151,0.034208454
1757686913281,3.3997664,-1.6376339,3.6415808,0.35063666,0.30665436,0.015882496
1757686913298,2.9257145,-1.7812861,3.347094,0.35063666,0.30665436,0.015882496
1757686913300,2.9257145,-1.7812861,3.347094,0.017104227,0.31887165,-0.04642576
1757686913322,2.6527755,-2.018312,3.2010477,0.017104227,0.31887165,-0.04642576
1757686913323,2.6527755,-2.018312,3.2010477,-0.017104227,0.3286455,-0.062308256
1757686913339,1.6831238,-1.3024458,3.028665,-0.017104227,0.3286455,-0.062308256
1757686913341,1.6831238,-1.3024458,3.028665,0.05497787,0.30665436,-0.019547688
1757686913359,1.2210429,-0.82121116,2.9759927,0.05497787,0.30665436,-0.019547688
1757686913361,1.2210429,-0.82121116,2.9759927,-0.07819075,0.25411993,0.05497787
1757686913379,1.3958195,-1.4030021,2.7365725,-0.07819075,0.25411993,0.05497787
1757686913381,1.3958195,-1.4030021,2.7365725,-0.18692477,0.18936823,0.1160644
1757686913400,1.9321208,-2.0973208,2.6431987,-0.18692477,0.18936823,0.1160644
1757686913402,1.9321208,-2.0973208,2.6431987,-0.13805555,0.13194689,0.103847094
1757686913420,2.5785553,-2.2625206,2.755726,-0.13805555,0.13194689,0.103847094
1757686913422,2.5785553,-2.2625206,2.755726,0.07696902,0.119729586,0.07452556
1757686913441,3.2034419,-2.1308396,3.4883518,0.07696902,0.119729586,0.07452556
1757686913442,3.2034419,-2.1308396,3.4883518,0.2724459,0.18325958,0.06719518
1757686913459,3.241749,-2.1021092,4.450821,0.2724459,0.18325958,0.06719518
1757686913460,3.241749,-2.1021092,4.450821,0.32498032,0.29565877,0.062308256
1757686913480,2.7844565,-2.3319526,5.3079453,0.32498032,0.29565877,0.062308256
1757686913482,2.7844565,-2.3319526,5.3079453,0.2761111,0.34574974,0.0720821
1757686913499,3.1842883,-2.4372973,6.1507044,0.2761111,0.34574974,0.0720821
1757686913500,3.1842883,-2.4372973,6.1507044,0.12095132,0.17592919,0.05009095
1757686913520,3.9336734,-2.9257145,6.7612257,0.12095132,0.17592919,0.05009095
1757686913522,3.9336734,-2.9257145,6.7612257,-0.064751714,0.089186326,0.056199603
1757686913540,4.5801077,-3.6655228,7.4962454,-0.064751714,0.089186326,0.056199603
1757686913541,4.5801077,-3.6655228,7.4962454,-0.2773328,0.07819075,0.040317107
1757686913558,4.6830587,-4.2664676,8.269572,-0.2773328,0.07819075,0.040317107
1757686913560,4.6830587,-4.2664676,8.269572,-0.376293,0.07696902,0.029321533
1757686913579,4.297592,-4.747702,8.439561,-0.376293,0.07696902,0.029321533
1757686913580,4.297592,-4.747702,8.439561,-0.4605924,0.02565634,0.02443461
1757686913600,4.498705,-5.3725886,7.9990277,-0.4605924,0.02565634,0.02443461
1757686913601,4.498705,-5.3725886,7.9990277,-0.4728097,-0.05131268,0.0061086523
1757686913617,4.915296,-5.422867,7.7189064,-0.4728097,-0.05131268,0.0061086523
1757686913618,4.915296,-5.422867,7.7189064,-0.312763,-0.021991149,-0.009773844
1757686913638,4.8338933,-4.8602295,7.5704656,-0.312763,-0.021991149,-0.009773844
1757686913639,4.8338933,-4.8602295,7.5704656,-0.018325957,0.087964594,-0.002443461
1757686913657,4.450821,-4.0533834,7.393295,-0.018325957,0.087964594,-0.002443461
1757686913658,4.450821,-4.0533834,7.393295,0.16737708,0.16249016,0.019547688
1757686913678,4.7429137,-3.9097314,7.314286,0.16737708,0.16249016,0.019547688
1757686913679,4.7429137,-3.9097314,7.314286,0.10629055,0.12095132,0.021991149
1757686913697,4.560954,-3.9432502,7.201759,0.10629055,0.12095132,0.021991149
1757686913698,4.560954,-3.9432502,7.201759,0.02443461,0.09040806,0.004886922
1757686913718,4.1611223,-3.6487634,6.9360023,0.02443461,0.09040806,0.004886922
1757686913719,4.1611223,-3.6487634,6.9360023,0.013439035,0.0061086523,-0.0036651916
1757686913737,4.0821137,-3.2082303,6.6271505,0.013439035,0.0061086523,-0.0036651916
1757686913739,4.0821137,-3.2082303,6.6271505,-0.02443461,-0.10262536,0.007330383
1757686913758,4.072537,-3.1627405,6.229713,-0.02443461,-0.10262536,0.007330383
1757686913758,4.072537,-3.1627405,6.229713,-0.16249016,-0.15393804,0.008552114
1757686913778,3.7134068,-3.5529952,6.167464,-0.16249016,-0.15393804,0.008552114
1757686913779,3.7134068,-3.5529952,6.167464,-0.3371976,-0.17837265,0.032986723
1757686913799,3.4380736,-3.6583402,6.229713,-0.3371976,-0.17837265,0.032986723
1757686913799,3.4380736,-3.6583402,6.229713,-0.43127087,-0.22724187,0.042760566
1757686913818,3.3159695,-3.3925838,6.1650696,-0.43127087,-0.22724187,0.042760566
1757686913819,3.3159695,-3.3925838,6.1650696,-0.49968776,-0.32742378,0.065973446
1757686913838,3.1890767,-3.8426938,5.7628436,-0.49968776,-0.32742378,0.065973446
1757686913839,3.1890767,-3.8426938,5.7628436,-0.5448918,-0.4251622,0.09773844
1757686913857,3.157952,-3.8642416,5.389348,-0.5448918,-0.4251622,0.09773844
1757686913858,3.157952,-3.8642416,5.389348,-0.40683624,-0.44715336,0.09162979
1757686913879,3.2321723,-3.5458126,4.8985367,-0.40683624,-0.44715336,0.09162979
1757686913879,3.2321723,-3.5458126,4.8985367,-0.1881465,-0.44593164,0.09773844
1757686913898,3.53863,-3.0478187,3.9624038,-0.1881465,-0.44593164,0.09773844
1757686913899,3.53863,-3.0478187,3.9624038,-0.014660766,-0.40561453,0.11484267
1757686913919,3.7780502,-2.8921957,3.3159695,-0.014660766,-0.40561453,0.11484267
1757686913920,3.7780502,-2.8921957,3.3159695,0.05131268,-0.31398472,0.12339478
1757686913939,3.608062,-2.60968,2.9472623,0.05131268,-0.31398472,0.12339478
1757686913940,3.608062,-2.60968,2.9472623,-0.052534413,-0.15149458,0.09285152
1757686913959,3.1890767,-2.597709,2.9592333,-0.052534413,-0.15149458,0.09285152
1757686913960,3.1890767,-2.597709,2.9592333,-0.16371189,0.0012217305,0.06719518
1757686913980,3.4165258,-2.5234885,2.8538885,-0.16371189,0.0012217305,0.06719518
1757686913981,3.4165258,-2.5234885,2.8538885,-0.14049901,0.112399206,0.036651913
1757686914000,4.3885717,-2.492364,3.181894,-0.14049901,0.112399206,0.036651913
1757686914002,4.3885717,-2.492364,3.181894,-0.1160644,0.21624629,0.043982297
1757686914020,3.1411927,-2.4995465,4.582502,-0.1160644,0.21624629,0.043982297
1757686914022,3.1411927,-2.4995465,4.582502,-0.39461896,0.37384954,0.17592919
1757686914040,1.70946,-3.2680852,5.463568,-0.39461896,0.37384954,0.17592919
1757686914042,1.70946,-3.2680852,5.463568,-0.5314528,0.2724459,0.26633725
1757686914058,1.8315643,-4.429273,5.614403,-0.5314528,0.2724459,0.26633725
1757686914059,1.8315643,-4.429273,5.614403,-0.48991394,0.059864793,0.24190263
1757686914080,3.004723,-4.8961425,5.3438582,-0.48991394,0.059864793,0.24190263
1757686914082,3.004723,-4.8961425,5.3438582,-0.16249016,-0.095294975,0.103847094
1757686914098,4.225766,-4.4125137,5.616797,-0.16249016,-0.095294975,0.103847094
1757686914099,4.225766,-4.4125137,5.616797,0.23090707,-0.13683382,0.06841691
1757686914119,4.474763,-4.1299977,5.645528,0.23090707,-0.13683382,0.06841691
1757686914121,4.474763,-4.1299977,5.645528,0.2761111,-0.09773844,0.10629055
1757686914138,4.6830587,-4.280833,5.6335564,0.2761111,-0.09773844,0.10629055
1757686914139,4.6830587,-4.280833,5.6335564,0.20769419,-0.10262536,0.12217305
1757686914158,5.2768207,-4.2401314,6.136339,0.20769419,-0.10262536,0.12217305
1757686914159,5.2768207,-4.2401314,6.136339,0.18692477,-0.12339478,0.087964594
1757686914177,4.7668557,-4.110844,7.1826053,0.18692477,-0.12339478,0.087964594
1757686914178,4.7668557,-4.110844,7.1826053,-0.052534413,-0.004886922,0.04886922
1757686914198,4.9559975,-5.2145715,7.5106106,-0.052534413,-0.004886922,0.04886922
1757686914199,4.9559975,-5.2145715,7.5106106,-0.17837265,-0.0012217305,0.009773844
1757686914217,5.8083334,-6.5026517,7.4603324,-0.17837265,-0.0012217305,0.009773844
1757686914218,5.8083334,-6.5026517,7.4603324,-0.029321533,-0.06841691,-0.056199603
1757686914238,6.555324,-6.739678,7.431602,-0.029321533,-0.06841691,-0.056199603
1757686914239,6.555324,-6.739678,7.431602,0.1881465,-0.1685988,-0.05131268
1757686914257,6.3326635,-6.5481415,7.776367,0.1881465,-0.1685988,-0.05131268
1757686914258,6.3326635,-6.5481415,7.776367,0.22113322,-0.19181168,0.030543262
1757686914279,5.9184666,-6.337452,7.955932,0.22113322,-0.19181168,0.030543262
1757686914281,5.9184666,-6.337452,7.955932,0.028099801,-0.24923302,0.06841691
1757686914297,6.4906807,-6.603208,7.678205,0.028099801,-0.24923302,0.06841691
1757686914298,6.4906807,-6.603208,7.678205,-0.22479841,-0.34697145,0.05131268
1757686914317,7.3645644,-7.1466923,7.5680714,-0.22479841,-0.34697145,0.05131268
1757686914318,7.3645644,-7.1466923,7.5680714,-0.26633725,-0.35308012,0.012217305
1757686914337,7.4866686,-6.9958572,8.334216,-0.26633725,-0.35308012,0.012217305
1757686914340,7.4866686,-6.9958572,8.334216,-0.25045475,-0.26633725,0.0720821
1757686914355,8.264784,-7.6111674,9.842564,-0.25045475,-0.26633725,0.0720821
1757686914356,8.264784,-7.6111674,9.842564,-0.56199604,-0.18203785,0.16249016
1757686914376,9.267955,-9.184157,10.105926,-0.56199604,-0.18203785,0.16249016
1757686914376,9.267955,-9.184157,10.105926,-0.7293731,-0.12705997,0.10629055
1757686914396,9.375694,-9.435549,10.54167,-0.7293731,-0.12705997,0.10629055
1757686914396,9.375694,-9.435549,10.54167,-0.752586,0.03176499,0.04520403
1757686914415,8.985439,-9.775525,10.943896,-0.752586,0.03176499,0.04520403
1757686914415,8.985439,-9.775525,10.943896,-0.81489426,0.1282817,-0.007330383
1757686914436,9.241618,-11.279084,11.109096,-0.81489426,0.1282817,-0.007330383
1757686914438,9.241618,-11.279084,11.109096,-0.6047566,0.1282817,-0.04153884
1757686914455,9.136273,-11.532869,11.101913,-0.6047566,0.1282817,-0.04153884
1757686914455,9.136273,-11.532869,11.101913,0.0036651916,0.1685988,-0.057421334
1757686914475,8.224083,-10.029311,10.644621,0.0036651916,0.1685988,-0.057421334
1757686914476,8.224083,-10.029311,10.644621,0.64873886,0.2443461,-0.10262536
1757686914495,7.752425,-8.192958,9.959879,0.64873886,0.2443461,-0.10262536
1757686914495,7.752425,-8.192958,9.959879,0.893085,0.28588495,-0.15515977
1757686914516,7.52737,-7.1730285,9.598354,0.893085,0.28588495,-0.15515977
1757686914517,7.52737,-7.1730285,9.598354,0.6817256,0.3811799,-0.08552113
1757686914535,7.074866,-9.078813,9.368511,0.6817256,0.3811799,-0.08552113
1757686914536,7.074866,-9.078813,9.368511,0.3726278,0.4569272,-0.052534413
1757686914557,6.9240313,-9.083601,9.272743,0.3726278,0.4569272,-0.052534413
1757686914558,6.9240313,-9.083601,9.272743,0.40561453,0.46181414,-0.11362094
1757686914577,6.6079965,-7.762002,9.105149,0.40561453,0.46181414,-0.11362094
1757686914578,6.6079965,-7.762002,9.105149,0.5119051,0.37751472,-0.1160644
1757686914597,6.5816603,-7.015011,8.62152,0.5119051,0.37751472,-0.1160644
1757686914598,6.5816603,-7.015011,8.62152,0.40683624,0.30298916,-0.12461651
1757686914618,6.909666,-6.9144545,8.336611,0.40683624,0.30298916,-0.12461651
1757686914618,6.909666,-6.9144545,8.336611,0.14049901,0.28955013,-0.08307768
1757686914638,6.775591,-7.651869,8.4347725,0.14049901,0.28955013,-0.08307768
1757686914638,6.775591,-7.651869,8.4347725,-0.04153884,0.3213151,-0.042760566
1757686914657,6.1890116,-8.6334915,9.095572,-0.04153884,0.3213151,-0.042760566
1757686914658,6.1890116,-8.6334915,9.095572,0.14172074,0.28221974,-0.030543262
1757686914677,6.1243677,-8.056489,8.8777,0.14172074,0.28221974,-0.030543262
1757686914678,6.1243677,-8.056489,8.8777,0.5155703,0.08552113,-0.05131268
1757686914697,6.619968,-7.2209125,8.360553,0.5155703,0.08552113,-0.05131268
1757686914698,6.619968,-7.2209125,8.360553,0.7867944,-0.10995574,-0.07941248
1757686914718,7.264008,-6.0621185,8.200141,0.7867944,-0.10995574,-0.07941248
1757686914719,7.264008,-6.0621185,8.200141,0.7501425,-0.059864793,-0.043982297
1757686914736,6.9862804,-5.8586116,8.750807,0.7501425,-0.059864793,-0.043982297
1757686914737,6.9862804,-5.8586116,8.750807,0.48502702,0.008552114,0.061086524
1757686914757,6.2225304,-6.457162,8.724471,0.48502702,0.008552114,0.061086524
1757686914758,6.2225304,-6.457162,8.724471,0.2406809,0.06352998,0.10751228
1757686914775,5.403713,-6.4739213,8.75799,0.2406809,0.06352998,0.10751228
1757686914776,5.403713,-6.4739213,8.75799,0.15027285,0.12339478,0.037873644
1757686914795,4.534618,-6.303933,9.040505,0.15027285,0.12339478,0.037873644
1757686914796,4.534618,-6.303933,9.040505,0.4251622,0.20891592,0.004886922
1757686914815,4.345476,-5.614403,8.623915,0.4251622,0.20891592,0.004886922
1757686914815,4.345476,-5.614403,8.623915,0.8038987,0.22602014,0.004886922
1757686914835,4.865018,-4.6399627,8.279149,0.8038987,0.22602014,0.004886922
1757686914836,4.865018,-4.6399627,8.279149,0.91629785,0.22602014,-0.0036651916
1757686914855,4.6926355,-3.8594532,7.599196,0.91629785,0.22602014,-0.0036651916
1757686914855,4.6926355,-3.8594532,7.599196,0.77213365,0.30543262,-0.008552114
1757686914875,4.6591167,-3.6631286,7.0102224,0.77213365,0.30543262,-0.008552114
1757686914876,4.6591167,-3.6631286,7.0102224,0.516792,0.30909783,0.008552114
1757686914895,3.7828386,-3.560178,6.2967505,0.516792,0.30909783,0.008552114
1757686914895,3.7828386,-3.560178,6.2967505,0.2565634,0.3371976,0.012217305
1757686914917,3.2393548,-3.2082303,6.265626,0.2565634,0.3371976,0.012217305
1757686914917,3.2393548,-3.2082303,6.265626,0.21991149,0.31398472,0.015882496
1757686914937,2.846706,-2.7269957,6.0764837,0.21991149,0.31398472,0.015882496
1757686914937,2.846706,-2.7269957,6.0764837,0.16982053,0.24556783,0.029321533
1757686914958,2.7605145,-2.3654714,5.7125654,0.16982053,0.24556783,0.029321533
1757686914960,2.7605145,-2.3654714,5.7125654,0.13072516,0.15515977,0.042760566
1757686914977,2.4732103,-2.2170308,5.2049947,0.13072516,0.15515977,0.042760566
1757686914978,2.4732103,-2.2170308,5.2049947,0.10629055,0.08674286,0.04886922
1757686914998,2.27928,-2.1811178,4.1826706,0.10629055,0.08674286,0.04886922
1757686915000,2.27928,-2.1811178,4.1826706,0.10140363,0.0036651916,0.04153884
1757686915017,2.5474305,-2.4396915,3.6607344,0.10140363,0.0036651916,0.04153884
