timestamp,ax,ay,az,gx,gy,gz
1757686685253,-1.2641385,4.096479,8.26239,-1.1154399,0.40317106,-0.21502456
1757686685253,-1.2641385,4.096479,8.26239,-0.8735373,0.20769419,0.64873886
1757686685284,-0.6488287,4.4843397,8.147469,-0.8735373,0.20769419,0.64873886
1757686685284,-0.6488287,4.4843397,8.147469,0.5839872,-0.056199603,0.089186326
1757686685292,-0.770933,4.9320555,8.6334915,0.5839872,-0.056199603,0.089186326
1757686685292,-0.770933,4.9320555,8.6334915,-0.91751957,-0.14049901,0.058643065
1757686685308,-0.60094464,4.7141833,8.968679,-0.91751957,-0.14049901,0.058643065
1757686685309,-0.60094464,4.7141833,8.968679,-1.073901,-0.13561209,0.34208453
1757686685329,-0.581791,4.223372,8.700529,-1.073901,-0.13561209,0.34208453
1757686685329,-0.581791,4.223372,8.700529,-1.767844,-0.26633725,0.6072
1757686685348,0.34715924,3.8546648,9.672575,-1.767844,-0.26633725,0.6072
1757686685349,0.34715924,3.8546648,9.672575,-2.0928242,-0.42271876,0.6414085
1757686685368,-0.5674258,3.3925838,10.108319,-2.0928242,-0.42271876,0.6414085
1757686685369,-0.5674258,3.3925838,10.108319,-2.39337,-0.49846604,0.67073005
1757686685388,-1.1444284,2.087744,11.69807,-2.39337,-0.49846604,0.67073005
1757686685389,-1.1444284,2.087744,11.69807,-3.137404,-0.8136725,0.7538077
1757686685409,-1.1204864,0.5363012,12.813767,-3.137404,-0.8136725,0.7538077
1757686685409,-1.1204864,0.5363012,12.813767,-4.256509,-1.2095132,0.52534413
1757686685430,-0.074220255,-0.090979666,11.705252,-4.256509,-1.2095132,0.52534413
1757686685430,-0.074220255,-0.090979666,11.705252,-5.6773815,-1.632232,0.21380283
1757686685450,0.2801216,-5.2145715,10.800244,-5.6773815,-1.632232,0.21380283
1757686685450,0.2801216,-5.2145715,10.800244,-6.976081,-2.0158553,-0.6609562
1757686685469,1.3718776,-6.9767036,9.004593,-6.976081,-2.0158553,-0.6609562
1757686685470,1.3718776,-6.9767036,9.004593,-7.651698,-2.1160371,-1.5882497
1757686685489,3.083732,-8.89446,7.180211,-7.651698,-2.1160371,-1.5882497
1757686685490,3.083732,-8.89446,7.180211,-8.042652,-1.9193386,-2.4459045
1757686685508,3.6272156,-11.834539,5.4659624,-8.042652,-1.9193386,-2.4459045
1757686685509,3.6272156,-11.834539,5.4659624,-8.228354,-1.500285,-3.273016
1757686685528,4.5633483,-11.20247,4.1659107,-8.228354,-1.500285,-3.273016
1757686685529,4.5633483,-11.20247,4.1659107,-8.167269,-0.8503244,-4.128227
1757686685550,4.498705,-10.21127,4.132392,-8.167269,-0.8503244,-4.128227
1757686685550,4.498705,-10.21127,4.132392,-7.4696603,-0.02565634,-4.4409904
1757686685570,4.4436383,-7.8027034,4.0581717,-7.4696603,-0.02565634,-4.4409904
1757686685570,4.4436383,-7.8027034,4.0581717,-6.5851274,0.82833326,-4.647463
1757686685589,3.4476504,-5.731719,4.345476,-6.5851274,0.82833326,-4.647463
1757686685590,3.4476504,-5.731719,4.345476,-5.477018,1.6029104,-4.5387287
1757686685608,1.8650831,-4.781221,4.5992613,-5.477018,1.6029104,-4.5387287
1757686685609,1.8650831,-4.781221,4.5992613,-4.2711697,2.1368067,-4.162436
1757686685630,0.49799395,-3.3686419,6.1890116,-4.2711697,2.1368067,-4.162436
1757686685630,0.49799395,-3.3686419,6.1890116,-2.4715607,2.443461,-3.4843755
1757686685649,0.44771573,-2.791639,4.3598413,-2.4715607,2.443461,-3.4843755
1757686685650,0.44771573,-2.791639,4.3598413,-1.5613716,2.3420575,-3.0469959
1757686685668,0.4405331,-2.3127987,4.134786,-1.5613716,2.3420575,-3.0469959
1757686685669,0.4405331,-2.3127987,4.134786,-0.816116,2.2235496,-2.6267207
1757686685689,0.4285621,-0.05267244,5.3223104,-0.816116,2.2235496,-2.6267207
1757686685689,0.4285621,-0.05267244,5.3223104,-0.71593404,2.0769417,-2.0366247
1757686685708,1.5442601,-0.25378537,6.1938,-0.71593404,2.0769417,-2.0366247
1757686685708,1.5442601,-0.25378537,6.1938,-0.90041536,1.7373008,-1.4514158
1757686685728,0.39025488,-2.72939,9.957485,-0.90041536,1.7373008,-1.4514158
1757686685729,0.39025488,-2.72939,9.957485,-0.37995818,2.221106,-1.1887437
1757686685749,-1.2090719,-1.8052281,8.544906,-0.37995818,2.221106,-1.1887437
1757686685749,-1.2090719,-1.8052281,8.544906,-0.19303341,1.2412782,-0.7257079
1757686685769,-0.6488287,-1.6448165,4.173094,-0.19303341,1.2412782,-0.7257079
1757686685769,-0.6488287,-1.6448165,4.173094,-0.1282817,0.47891834,-0.44959682
1757686685789,1.4939818,-2.5378537,2.719813,-0.1282817,0.47891834,-0.44959682
1757686685789,1.4939818,-2.5378537,2.719813,-0.3200934,-0.5314528,0.2968805
1757686685808,4.759673,-3.6990416,1.352724,-0.3200934,-0.5314528,0.2968805
1757686685808,4.759673,-3.6990416,1.352724,-0.18081611,-0.6377433,-0.12705997
1757686685828,3.9336734,-6.0836663,0.9552865,-0.18081611,-0.6377433,-0.12705997
1757686685828,3.9336734,-6.0836663,0.9552865,-0.48747048,-0.376293,0.019547688
1757686685849,4.010288,-6.4858923,1.2018893,-0.48747048,-0.376293,0.019547688
1757686685849,4.010288,-6.4858923,1.2018893,-0.17104226,-0.0720821,0.057421334
1757686685869,5.8921304,-4.8745947,2.5091233,-0.17104226,-0.0720821,0.057421334
1757686685869,5.8921304,-4.8745947,2.5091233,0.2883284,-0.32253686,-0.059864793
1757686685889,4.661511,-3.0693667,4.268862,0.2883284,-0.32253686,-0.059864793
1757686685889,4.661511,-3.0693667,4.268862,0.50335294,-0.08552113,-0.010995574
1757686685908,2.918532,-3.064578,4.7141833,0.50335294,-0.08552113,-0.010995574
1757686685908,2.918532,-3.064578,4.7141833,0.089186326,-0.064751714,0.13927728
1757686685928,4.086902,-4.900931,4.1276035,0.089186326,-0.064751714,0.13927728
1757686685928,4.086902,-4.900931,4.1276035,-0.30298916,-0.3567453,0.15515977
1757686685948,6.3422403,-5.3965306,3.3087866,-0.30298916,-0.3567453,0.15515977
1757686685949,6.3422403,-5.3965306,3.3087866,-0.49235737,-0.47158796,0.04886922
1757686685969,6.9767036,-5.758055,3.0262709,-0.49235737,-0.47158796,0.04886922
1757686685969,6.9767036,-5.758055,3.0262709,-0.6450737,-0.27855456,-0.04642576
1757686685989,6.1530986,-6.6630635,3.7828386,-0.6450737,-0.27855456,-0.04642576
1757686685989,6.1530986,-6.6630635,3.7828386,-0.8405506,-0.19181168,-0.06963864
1757686686008,5.8681884,-7.326257,4.465186,-0.8405506,-0.19181168,-0.06963864
1757686686008,5.8681884,-7.326257,4.465186,-0.8185594,-0.2883284,-0.047647487
1757686686028,6.4547677,-8.24563,4.4436383,-0.8185594,-0.2883284,-0.047647487
1757686686028,6.4547677,-8.24563,4.4436383,-0.79168135,-0.47036624,-0.014660766
1757686686047,7.7093296,-9.375694,4.4603977,-0.79168135,-0.47036624,-0.014660766
1757686686047,7.7093296,-9.375694,4.4603977,-0.77824235,-0.657291,0.0036651916
1757686686068,8.157045,-10.105926,4.4101195,-0.77824235,-0.657291,0.0036651916
1757686686068,8.157045,-10.105926,4.4101195,-0.72204274,-0.68416905,0.008552114
1757686686089,8.396465,-10.462662,4.1299977,-0.72204274,-0.68416905,0.008552114
1757686686089,8.396465,-10.462662,4.1299977,-0.6059783,-0.6817256,0.040317107
1757686686109,8.655039,-10.951078,4.0414124,-0.6059783,-0.6817256,0.040317107
1757686686110,8.655039,-10.951078,4.0414124,-0.33841935,-0.64873886,0.05497787
1757686686128,9.095572,-10.867282,4.295198,-0.33841935,-0.64873886,0.05497787
1757686686129,9.095572,-10.867282,4.295198,-0.15760323,-0.548557,0.05131268
1757686686147,9.41879,-10.737994,4.2880154,-0.15760323,-0.548557,0.05131268
1757686686148,9.41879,-10.737994,4.2880154,-0.15149458,-0.35796702,0.042760566
1757686686167,9.904813,-10.96305,4.5202527,-0.15149458,-0.35796702,0.042760566
1757686686167,9.904813,-10.96305,4.5202527,-0.07452556,-0.20158553,-0.02565634
1757686686187,10.129868,-10.905589,4.6279917,-0.07452556,-0.20158553,-0.02565634
1757686686187,10.129868,-10.905589,4.6279917,0.09285152,-0.18448131,-0.05131268
1757686686207,10.218452,-11.247959,4.7740383,0.09285152,-0.18448131,-0.05131268
1757686686207,10.218452,-11.247959,4.7740383,0.21991149,-0.15027285,-0.10262536
1757686686228,10.060435,-11.451467,4.5418005,0.21991149,-0.15027285,-0.10262536
1757686686229,10.060435,-11.451467,4.5418005,0.19303341,-0.061086524,-0.14905111
1757686686247,9.78989,-11.6430025,4.333505,0.19303341,-0.061086524,-0.14905111
1757686686248,9.78989,-11.6430025,4.333505,0.172264,0.007330383,-0.1881465
1757686686267,9.478644,-11.166556,4.10845,0.172264,0.007330383,-0.1881465
1757686686268,9.478644,-11.166556,4.10845,0.24801129,0.030543262,-0.18081611
1757686686287,9.624691,-10.795456,4.0797195,0.24801129,0.030543262,-0.18081611
1757686686287,9.624691,-10.795456,4.0797195,0.312763,0.04886922,-0.15149458
1757686686307,9.600749,-10.795456,4.297592,0.312763,0.04886922,-0.15149458
1757686686307,9.600749,-10.795456,4.297592,0.31642818,0.081855945,-0.10873401
1757686686329,9.150639,-11.013328,4.4699745,0.31642818,0.081855945,-0.10873401
1757686686330,9.150639,-11.013328,4.4699745,0.32742378,0.13683382,-0.10873401
1757686686349,9.495404,-9.911995,4.402937,0.32742378,0.13683382,-0.10873401
1757686686350,9.495404,-9.911995,4.402937,0.38606682,0.06963864,-0.13072516
1757686686369,10.110714,-9.67018,4.074931,0.38606682,0.06963864,-0.13072516
1757686686371,10.110714,-9.67018,4.074931,0.2919936,0.036651913,-0.12339478
1757686686391,9.792285,-9.861717,4.209007,0.2919936,0.036651913,-0.12339478
1757686686393,9.792285,-9.861717,4.209007,0.22602014,0.16615535,-0.12705997
1757686686409,8.949526,-9.509769,4.537012,0.22602014,0.16615535,-0.12705997
1757686686410,8.949526,-9.509769,4.537012,0.26145032,0.28221974,-0.15393804
1757686686429,9.112331,-9.011775,4.7884035,0.26145032,0.28221974,-0.15393804
1757686686430,9.112331,-9.011775,4.7884035,0.2602286,0.26511553,-0.1685988
1757686686449,9.368511,-9.392453,4.7979803,0.2602286,0.26511553,-0.1685988
1757686686450,9.368511,-9.392453,4.7979803,0.27122417,0.24312437,-0.17104226
1757686686469,9.263166,-9.782708,4.534618,0.27122417,0.24312437,-0.17104226
1757686686470,9.263166,-9.782708,4.534618,0.35430184,0.23945917,-0.16982053
1757686686490,8.846576,-9.354146,4.453215,0.35430184,0.23945917,-0.16982053
1757686686491,8.846576,-9.354146,4.453215,0.5558874,0.267559,-0.17715092
1757686686510,8.535329,-8.11395,4.4603977,0.5558874,0.267559,-0.17715092
1757686686511,8.535329,-8.11395,4.4603977,0.6426302,0.28099802,-0.17348573
1757686686530,8.901642,-7.501034,4.321534,0.6426302,0.28099802,-0.17348573
1757686686531,8.901642,-7.501034,4.321534,0.46792278,0.36651915,-0.13439035
1757686686550,8.303091,-7.5106106,4.4244847,0.46792278,0.36651915,-0.13439035
1757686686551,8.303091,-7.5106106,4.4244847,0.28099802,0.50946164,-0.10140363
1757686686570,7.2664022,-7.3525934,4.295198,0.28099802,0.50946164,-0.10140363
1757686686571,7.2664022,-7.3525934,4.295198,0.24190263,0.593761,-0.09162979
1757686686590,6.4763155,-7.1873937,4.259285,0.24190263,0.593761,-0.09162979
1757686686591,6.4763155,-7.1873937,4.259285,0.3005457,0.54244834,-0.09040806
1757686686610,6.069301,-6.7731967,4.120421,0.3005457,0.54244834,-0.09040806
1757686686611,6.069301,-6.7731967,4.120421,0.32986724,0.45448375,-0.09773844
1757686686630,5.6215854,-6.351817,4.039018,0.32986724,0.45448375,-0.09773844
1757686686631,5.6215854,-6.351817,4.039018,0.37018433,0.35796702,-0.089186326
1757686686650,5.4803276,-5.3582234,3.8762126,0.37018433,0.35796702,-0.089186326
1757686686651,5.4803276,-5.3582234,3.8762126,0.22602014,0.2565634,-0.10262536
1757686686669,5.097255,-5.1475334,3.715801,0.22602014,0.2565634,-0.10262536
1757686686670,5.097255,-5.1475334,3.715801,0.103847094,0.20769419,-0.065973446
1757686686690,4.656722,-5.17387,3.2824504,0.103847094,0.20769419,-0.065973446
1757686686695,4.656722,-5.17387,3.2824504,0.12339478,0.17348573,-0.030543262
1757686686709,4.189853,-4.489128,3.41892,0.12339478,0.17348573,-0.030543262
1757686686710,4.189853,-4.489128,3.41892,0.3200934,0.11484267,0.02076942
1757686686729,3.86903,-3.667917,3.289633,0.3200934,0.11484267,0.02076942
1757686686730,3.86903,-3.667917,3.289633,0.43371433,0.10262536,0.034208454
1757686686746,3.5769374,-3.1172507,3.2249897,0.43371433,0.10262536,0.034208454
1757686686746,3.5769374,-3.1172507,3.2249897,0.5045747,0.118507855,0.05375614
1757686686766,2.8491,-2.8060043,2.9975405,0.5045747,0.118507855,0.05375614
1757686686767,2.8491,-2.8060043,2.9975405,0.5522222,0.2003638,0.052534413
1757686686786,2.5498247,-2.542642,2.7581203,0.5522222,0.2003638,0.052534413
1757686686786,2.5498247,-2.542642,2.7581203,0.6560693,0.2602286,0.04153884
1757686686806,2.5306711,-2.1068976,2.3942018,0.6560693,0.2602286,0.04153884
1757686686806,2.5306711,-2.1068976,2.3942018,0.7855727,0.2687807,0.061086524
1757686686826,2.6240451,-1.6998832,2.3343468,0.7855727,0.2687807,0.061086524
1757686686826,2.6240451,-1.6998832,2.3343468,0.79168135,0.3371976,0.06719518
1757686686846,2.6384103,-1.5610195,2.3199813,0.79168135,0.3371976,0.06719518
1757686686846,2.6384103,-1.5610195,2.3199813,0.74036866,0.42638394,0.056199603
1757686686866,2.456451,-1.6998832,2.3942018,0.74036866,0.42638394,0.056199603
1757686686867,2.456451,-1.6998832,2.3942018,0.64751714,0.50701815,0.032986723
1757686686888,3.0573955,-1.7022774,3.0334535,0.64751714,0.50701815,0.032986723
1757686686889,3.0573955,-1.7022774,3.0334535,0.4129449,0.55833083,0.0
1757686686908,3.0789435,-2.1260512,3.7900212,0.4129449,0.55833083,0.0
1757686686909,3.0789435,-2.1260512,3.7900212,0.21013765,0.6267477,-0.004886922
1757686686929,3.1555579,-2.8491,4.4364557,0.21013765,0.6267477,-0.004886922
1757686686930,3.1555579,-2.8491,4.4364557,-0.037873644,0.61575216,-0.0036651916
1757686686948,3.5769374,-3.2321723,5.0158525,-0.037873644,0.61575216,-0.0036651916
1757686686949,3.5769374,-3.2321723,5.0158525,-0.28344148,0.453262,-0.008552114
1757686686969,4.3885717,-3.86903,5.41329,-0.28344148,0.453262,-0.008552114
1757686686970,4.3885717,-3.86903,5.41329,-0.49357912,0.21135938,0.012217305
1757686686989,5.2720323,-4.7141833,5.777209,-0.49357912,0.21135938,0.012217305
1757686686990,5.2720323,-4.7141833,5.777209,-0.6792821,-0.04520403,0.05497787
1757686687009,5.446809,-5.5880666,5.777209,-0.6792821,-0.04520403,0.05497787
1757686687011,5.446809,-5.5880666,5.777209,-0.74036866,-0.30298916,0.111177474
1757686687030,5.0493712,-5.695806,5.434838,-0.74036866,-0.30298916,0.111177474
1757686687031,5.0493712,-5.695806,5.434838,-0.6719518,-0.4886922,0.12095132
1757686687049,4.5394063,-5.056554,5.185841,-0.6719518,-0.4886922,0.12095132
1757686687050,4.5394063,-5.056554,5.185841,-0.44226643,-0.6291912,0.14905111
1757686687069,4.1635165,-3.9240966,4.6232033,-0.44226643,-0.6291912,0.14905111
1757686687070,4.1635165,-3.9240966,4.6232033,-0.20891592,-0.63285637,0.17104226
1757686687089,4.048595,-3.3399115,4.050989,-0.20891592,-0.63285637,0.17104226
1757686687090,4.048595,-3.3399115,4.050989,-0.10629055,-0.56688297,0.2003638
1757686687105,3.9911342,-3.0478187,3.4955344,-0.10629055,-0.56688297,0.2003638
1757686687105,3.9911342,-3.0478187,3.4955344,-0.056199603,-0.5326745,0.24801129
1757686687127,3.3662477,-3.1771057,3.2010477,-0.056199603,-0.5326745,0.24801129
1757686687129,3.3662477,-3.1771057,3.2010477,-0.035430185,-0.48502702,0.31031954
1757686687147,2.7964275,-3.5817258,2.7389667,-0.035430185,-0.48502702,0.31031954
1757686687148,2.7964275,-3.5817258,2.7389667,0.07696902,-0.44959682,0.32986724
1757686687168,2.789245,-3.4883518,2.2170308,0.07696902,-0.44959682,0.32986724
1757686687169,2.789245,-3.4883518,2.2170308,0.24312437,-0.49968776,0.32375857
1757686687189,3.110068,-3.1316159,2.1332338,0.24312437,-0.49968776,0.32375857
1757686687191,3.110068,-3.1316159,2.1332338,0.6267477,-0.53878313,0.35185838
1757686687207,3.3806129,-2.9735985,1.7262194,0.6267477,-0.53878313,0.35185838
1757686687209,3.3806129,-2.9735985,1.7262194,1.1936307,-0.43004912,0.37507126
1757686687227,3.3542767,-2.7581203,2.5067291,1.1936307,-0.43004912,0.37507126
1757686687229,3.3542767,-2.7581203,2.5067291,1.6920967,-0.3005457,0.35063666
1757686687247,3.7086184,-1.5825673,3.2824504,1.6920967,-0.3005457,0.35063666
1757686687249,3.7086184,-1.5825673,3.2824504,1.5968018,-0.18081611,0.312763
1757686687268,4.3526587,-1.4413095,3.620033,1.5968018,-0.18081611,0.312763
1757686687269,4.3526587,-1.4413095,3.620033,0.8588765,-0.103847094,0.3323107
1757686687288,4.4939165,-2.8562827,3.715801,0.8588765,-0.103847094,0.3323107
1757686687289,4.4939165,-2.8562827,3.715801,0.25411993,-0.034208454,0.3640757
1757686687308,4.572925,-3.7373488,4.0078936,0.25411993,-0.034208454,0.3640757
1757686687309,4.572925,-3.7373488,4.0078936,0.057421334,0.0036651916,0.31520647
1757686687328,5.473145,-3.8307228,4.417302,0.057421334,0.0036651916,0.31520647
1757686687329,5.473145,-3.8307228,4.417302,0.064751714,-0.009773844,0.22357668
1757686687347,7.098808,-4.39336,4.8458643,0.064751714,-0.009773844,0.22357668
1757686687348,7.098808,-4.39336,4.8458643,-0.08552113,0.042760566,0.07819075
1757686687368,6.993463,-4.9296613,5.171476,-0.08552113,0.042760566,0.07819075
1757686687369,6.993463,-4.9296613,5.171476,-0.24312437,0.056199603,0.080634214
1757686687388,7.015011,-5.533,5.305551,-0.24312437,0.056199603,0.080634214
1757686687389,7.015011,-5.533,5.305551,-0.3005457,0.09407325,0.061086524
1757686687408,6.9383965,-5.6120086,5.604826,-0.3005457,0.09407325,0.061086524
1757686687409,6.9383965,-5.6120086,5.604826,-0.29810223,0.040317107,0.07941248
1757686687428,6.6750345,-5.959168,5.8562174,-0.29810223,0.040317107,0.07941248
1757686687429,6.6750345,-5.959168,5.8562174,-0.42394048,-0.08674286,-0.010995574
1757686687447,7.201759,-6.612785,5.8705826,-0.42394048,-0.08674286,-0.010995574
1757686687448,7.201759,-6.612785,5.8705826,-0.6377433,-0.11362094,-0.0720821
1757686687467,8.166622,-7.740454,6.160281,-0.6377433,-0.11362094,-0.0720821
1757686687469,8.166622,-7.740454,6.160281,-0.91874135,-0.096516706,-0.13927728
1757686687488,8.916007,-9.437943,6.1650696,-0.91874135,-0.096516706,-0.13927728
1757686687489,8.916007,-9.437943,6.1650696,-1.0629056,-0.061086524,-0.18570304
1757686687508,9.267955,-10.560823,6.528988,-1.0629056,-0.061086524,-0.18570304
1757686687509,9.267955,-10.560823,6.528988,-0.9993755,-0.06963864,-0.24312437
1757686687528,9.330204,-10.441113,6.8761473,-0.9993755,-0.06963864,-0.24312437
1757686687529,9.330204,-10.441113,6.8761473,-0.93218035,-0.10140363,-0.27855456
1757686687547,9.528923,-11.066,6.6391215,-0.93218035,-0.10140363,-0.27855456
1757686687549,9.528923,-11.066,6.6391215,-0.7770206,-0.11484267,-0.26145032
1757686687567,9.921572,-11.571177,7.371747,-0.7770206,-0.11484267,-0.26145032
1757686687569,9.921572,-11.571177,7.371747,-0.36285394,-0.105068825,-0.28221974
1757686687588,10.113108,-10.625467,8.192958,-0.36285394,-0.105068825,-0.28221974
1757686687589,10.113108,-10.625467,8.192958,-0.03176499,-0.13805555,-0.26633725
1757686687608,10.970232,-10.0341,8.082825,-0.03176499,-0.13805555,-0.26633725
1757686687609,10.970232,-10.0341,8.082825,-0.26511553,-0.20647246,-0.25411993
1757686687628,10.168175,-10.960655,7.860164,-0.26511553,-0.20647246,-0.25411993
1757686687629,10.168175,-10.960655,7.860164,-0.40561453,-0.07086037,-0.25167647
1757686687646,9.306262,-11.022904,8.090008,-0.40561453,-0.07086037,-0.25167647
1757686687646,9.306262,-11.022904,8.090008,-0.18570304,0.032986723,-0.2443461
1757686687664,9.351752,-9.854534,7.6710224,-0.18570304,0.032986723,-0.2443461
1757686687664,9.351752,-9.854534,7.6710224,0.04886922,0.034208454,-0.20158553
1757686687684,9.543288,-10.2974615,7.455544,0.04886922,0.034208454,-0.20158553
1757686687684,9.543288,-10.2974615,7.455544,0.05375614,0.04153884,-0.14538592
1757686687704,9.41879,-10.965444,7.7093296,0.05375614,0.04153884,-0.14538592
1757686687704,9.41879,-10.965444,7.7093296,-0.0036651916,0.12583824,-0.15760323
1757686687724,9.883265,-10.572795,7.029376,-0.0036651916,0.12583824,-0.15760323
1757686687725,9.883265,-10.572795,7.029376,0.13194689,0.18692477,-0.16615535
1757686687744,9.31105,-9.081207,6.7971387,0.13194689,0.18692477,-0.16615535
1757686687744,9.31105,-9.081207,6.7971387,0.2761111,0.2932153,-0.15882497
1757686687764,8.611943,-7.7548194,6.622362,0.2761111,0.2932153,-0.15882497
1757686687764,8.611943,-7.7548194,6.622362,0.26511553,0.34208453,-0.17715092
1757686687784,9.076419,-8.937555,6.447585,0.26511553,0.34208453,-0.17715092
1757686687784,9.076419,-8.937555,6.447585,0.14905111,0.2883284,-0.18570304
1757686687804,8.937555,-8.911219,6.5361705,0.14905111,0.2883284,-0.18570304
1757686687804,8.937555,-8.911219,6.5361705,0.18203785,0.38606682,-0.20769419
1757686687824,8.559271,-8.449138,6.5864487,0.18203785,0.38606682,-0.20769419
1757686687824,8.559271,-8.449138,6.5864487,0.28221974,0.47891834,-0.2284636
1757686687844,8.51857,-8.231265,6.7684083,0.28221974,0.47891834,-0.2284636
1757686687844,8.51857,-8.231265,6.7684083,0.32742378,0.4801401,-0.24801129
1757686687864,8.494628,-7.9152308,6.6654577,0.32742378,0.4801401,-0.24801129
1757686687864,8.494628,-7.9152308,6.6654577,0.3042109,0.43127087,-0.25167647
1757686687883,8.463503,-8.145074,6.4140663,0.3042109,0.43127087,-0.25167647
1757686687884,8.463503,-8.145074,6.4140663,0.21380283,0.3933972,-0.24190263
1757686687904,8.3821,-8.274361,6.1219735,0.21380283,0.3933972,-0.24190263
1757686687904,8.3821,-8.274361,6.1219735,0.47525316,0.40194935,-0.24801129
1757686687924,7.967903,-7.357382,6.081272,0.47525316,0.40194935,-0.24801129
1757686687924,7.967903,-7.357382,6.081272,0.7733554,0.44837508,-0.204029
1757686687943,8.24563,-7.201759,6.131551,0.7733554,0.44837508,-0.204029
1757686687943,8.24563,-7.201759,6.131551,0.72082096,0.50335294,-0.23945917
1757686687963,7.711724,-7.120356,6.2847795,0.72082096,0.50335294,-0.23945917
1757686687964,7.711724,-7.120356,6.2847795,0.5717699,0.7415904,-0.24312437
1757686687983,7.038953,-6.6606693,6.7923503,0.5717699,0.7415904,-0.24312437
1757686687983,7.038953,-6.6606693,6.7923503,0.3494149,0.77091193,-0.27122417
1757686688003,6.0836663,-6.2991447,6.667852,0.3494149,0.77091193,-0.27122417
1757686688003,6.0836663,-6.2991447,6.667852,0.1441642,0.71593404,-0.31764993
1757686688024,4.984728,-5.530606,6.493075,0.1441642,0.71593404,-0.31764993
1757686688024,4.984728,-5.530606,6.493075,0.31887165,0.6536258,-0.29443705
1757686688043,4.3047748,-3.928885,6.1219735,0.31887165,0.6536258,-0.29443705
1757686688043,4.3047748,-3.928885,6.1219735,0.5143485,0.5693264,-0.26633725
1757686688063,3.7708676,-2.6288335,5.6551046,0.5143485,0.5693264,-0.26633725
1757686688063,3.7708676,-2.6288335,5.6551046,0.657291,0.49968776,-0.23335053
1757686688083,3.3997664,-2.1883004,5.161899,0.657291,0.49968776,-0.23335053
1757686688083,3.3997664,-2.1883004,5.161899,0.689056,0.4654793,-0.19303341
1757686688103,2.9712043,-2.27928,4.663905,0.689056,0.4654793,-0.19303341
1757686688103,2.9712043,-2.27928,4.663905,0.72326446,0.43371433,-0.16126843
1757686688123,2.9759927,-2.2457612,3.8762126,0.72326446,0.43371433,-0.16126843
1757686688124,2.9759927,-2.2457612,3.8762126,0.79779,0.3494149,-0.103847094
1757686688143,3.1483753,-1.5155296,3.4261026,0.79779,0.3494149,-0.103847094
1757686688143,3.1483753,-1.5155296,3.4261026,0.6939429,0.21502456,-0.034208454
1757686688162,2.870648,-0.7038953,2.9113493,0.6939429,0.21502456,-0.034208454
1757686688163,2.870648,-0.7038953,2.9113493,0.36041048,0.18081611,-0.0012217305
1757686688183,2.44448,-1.4748282,2.3008277,0.36041048,0.18081611,-0.0012217305
1757686688183,2.44448,-1.4748282,2.3008277,0.089186326,0.13194689,0.004886922
1757686688203,1.6831238,-2.006341,1.7956513,0.089186326,0.13194689,0.004886922
1757686688203,1.6831238,-2.006341,1.7956513,0.21502456,0.16615535,-0.004886922
1757686688223,1.2114661,-1.3838485,1.532289,0.21502456,0.16615535,-0.004886922
1757686688223,1.2114661,-1.3838485,1.532289,0.5143485,0.28099802,0.02076942
1757686688242,1.0486604,-0.6368576,1.9991584,0.5143485,0.28099802,0.02076942
1757686688243,1.0486604,-0.6368576,1.9991584,0.78801614,0.3640757,0.06841691
1757686688263,0.6344634,-0.521936,2.2266076,0.78801614,0.3640757,0.06841691
1757686688263,0.6344634,-0.521936,2.2266076,1.0140363,0.5143485,0.05131268
1757686688283,0.6775591,-0.6392518,2.779668,1.0140363,0.5143485,0.05131268
1757686688283,0.6775591,-0.6392518,2.779668,1.2742649,0.57910025,0.064751714
1757686688303,1.2545617,-0.91937345,3.6128504,1.2742649,0.57910025,0.064751714
1757686688303,1.2545617,-0.91937345,3.6128504,1.536937,0.64873886,0.05375614
1757686688323,2.2337902,-0.94092125,4.560954,1.536937,0.64873886,0.05375614
1757686688323,2.2337902,-0.94092125,4.560954,1.5296066,0.73548174,0.07452556
1757686688343,4.453215,-0.62009823,5.973533,1.5296066,0.73548174,0.07452556
1757686688344,4.453215,-0.62009823,5.973533,1.0885619,0.70738196,0.105068825
1757686688363,5.6646814,-0.59376204,8.1163435,1.0885619,0.70738196,0.105068825
1757686688364,5.6646814,-0.59376204,8.1163435,0.2968805,0.51923543,0.13805555
1757686688384,5.801151,-1.4915876,10.0508585,0.2968805,0.51923543,0.13805555
1757686688385,5.801151,-1.4915876,10.0508585,-0.98349303,0.24312437,0.172264
1757686688405,6.787562,-3.9504328,11.18571,-0.98349303,0.24312437,0.172264
1757686688405,6.787562,-3.9504328,11.18571,-2.5082128,-0.4813618,0.3371976
1757686688425,6.6103907,-7.249643,10.488997,-2.5082128,-0.4813618,0.3371976
1757686688427,6.6103907,-7.249643,10.488997,-3.0250046,-0.91507614,0.3567453
1757686688446,4.8386817,-8.049306,9.358934,-3.0250046,-0.91507614,0.3567453
1757686688447,4.8386817,-8.049306,9.358934,-2.1673498,-0.9468411,0.36041048
1757686688466,3.8738184,-5.559336,8.367735,-2.1673498,-0.9468411,0.36041048
1757686688467,3.8738184,-5.559336,8.367735,-0.97494096,-0.79534656,0.24312437
1757686688486,3.5410242,-2.8658595,6.943185,-0.97494096,-0.79534656,0.24312437
1757686688487,3.5410242,-2.8658595,6.943185,-0.35796702,-0.52534413,0.12461651
1757686688506,3.371036,-1.4987702,5.523423,-0.35796702,-0.52534413,0.12461651
1757686688507,3.371036,-1.4987702,5.523423,-0.16493362,-0.2321288,0.04642576
1757686688525,3.1962593,-0.93852705,4.5058875,-0.16493362,-0.2321288,0.04642576
1757686688526,3.1962593,-0.93852705,4.5058875,-0.33108896,0.09407325,0.19792034
1757686688545,3.608062,-1.6591818,4.63278,-0.33108896,0.09407325,0.19792034
1757686688547,3.608062,-1.6591818,4.63278,-0.6450737,0.10751228,0.18570304
1757686688566,4.000711,-3.0597897,5.6790466,-0.6450737,0.10751228,0.18570304
1757686688567,4.000711,-3.0597897,5.6790466,-0.9468411,-0.058643065,0.13561209
1757686688583,4.1180267,-3.5290532,6.0956373,-0.9468411,-0.058643065,0.13561209
1757686688585,4.1180267,-3.5290532,6.0956373,-1.1203269,-0.28955013,0.089186326
1757686688603,4.271256,-4.1252093,5.6239796,-1.1203269,-0.28955013,0.089186326
1757686688605,4.271256,-4.1252093,5.6239796,-1.0519099,-0.65118235,0.05009095
1757686688624,3.5075054,-3.5577838,5.7245364,-1.0519099,-0.65118235,0.05009095
1757686688625,3.5075054,-3.5577838,5.7245364,-0.6560693,-0.96883225,0.037873644
1757686688645,2.8179753,-2.1787236,4.7405195,-0.6560693,-0.96883225,0.037873644
1757686688646,2.8179753,-2.1787236,4.7405195,-0.32742378,-1.1985176,0.062308256
1757686688665,2.4468741,-0.8643068,3.715801,-0.32742378,-1.1985176,0.062308256
1757686688666,2.4468741,-0.8643068,3.715801,-0.21135938,-1.3084733,0.19792034
1757686688685,2.291251,-1.2401965,1.9033904,-0.21135938,-1.3084733,0.19792034
1757686688687,2.291251,-1.2401965,1.9033904,-0.20891592,-1.1569787,0.2932153
1757686688704,1.8602947,-3.0334535,-0.15562311,-0.20891592,-1.1569787,0.2932153
1757686688705,1.8602947,-3.0334535,-0.15562311,0.32620203,-0.5656612,0.19792034
1757686688725,1.8411411,-1.982399,0.1436521,0.32620203,-0.5656612,0.19792034
1757686688726,1.8411411,-1.982399,0.1436521,0.7623598,-0.013439035,0.0036651916
1757686688745,1.8842367,-0.8714894,1.5945383,0.7623598,-0.013439035,0.0036651916
1757686688746,1.8842367,-0.8714894,1.5945383,0.7281514,0.36774087,-0.11362094
1757686688765,2.2409728,-0.50996494,2.9759927,0.7281514,0.36774087,-0.11362094
1757686688766,2.2409728,-0.50996494,2.9759927,-0.05497787,0.41905355,-0.12950343
1757686688784,3.3255463,-1.8746599,3.4644098,-0.05497787,0.41905355,-0.12950343
1757686688785,3.3255463,-1.8746599,3.4644098,-0.9370673,0.052534413,0.14538592
1757686688805,4.3766007,-4.876989,4.0174704,-0.9370673,0.052534413,0.14538592
1757686688806,4.3766007,-4.876989,4.0174704,-1.3035865,-0.41538838,0.43004912
1757686688825,4.477157,-5.899313,4.3239284,-1.3035865,-0.41538838,0.43004912
1757686688826,4.477157,-5.899313,4.3239284,-1.0274754,-0.689056,0.4801401
1757686688844,5.604826,-5.803545,4.2544966,-1.0274754,-0.689056,0.4801401
1757686688846,5.604826,-5.803545,4.2544966,-0.43004912,-0.90285885,0.40439278
1757686688865,6.6965823,-4.6399627,3.8474822,-0.43004912,-0.90285885,0.40439278
1757686688866,6.6965823,-4.6399627,3.8474822,-0.49480084,-0.91874135,0.2443461
1757686688883,8.305486,-4.5537715,4.6686935,-0.49480084,-0.91874135,0.2443461
1757686688885,8.305486,-4.5537715,4.6686935,-1.4587462,-0.5314528,0.02565634
1757686688904,9.248801,-4.805163,4.8626237,-1.4587462,-0.5314528,0.02565634
1757686688906,9.248801,-4.805163,4.8626237,-2.3445008,-0.3359759,-0.12339478
1757686688925,8.9040365,-7.017405,5.932832,-2.3445008,-0.3359759,-0.12339478
1757686688926,8.9040365,-7.017405,5.932832,-2.7000244,-0.43004912,-0.021991149
1757686688944,7.3071036,-9.289502,6.215348,-2.7000244,-0.43004912,-0.021991149
1757686688946,7.3071036,-9.289502,6.215348,-2.0451767,-0.5705481,-0.012217305
1757686688964,7.314286,-11.647791,5.619191,-2.0451767,-0.5705481,-0.012217305
1757686688966,7.314286,-11.647791,5.619191,-1.7886134,-0.7171558,-0.103847094
1757686688983,8.35337,-11.997345,4.5082817,-1.7886134,-0.7171558,-0.103847094
1757686688985,8.35337,-11.997345,4.5082817,-1.5748106,-0.7440339,-0.23335053
1757686689004,9.097966,-10.651803,4.1611223,-1.5748106,-0.7440339,-0.23335053
1757686689005,9.097966,-10.651803,4.1611223,-1.0299188,-0.7110472,-0.2846632
1757686689025,8.717288,-9.945514,3.9384618,-1.0299188,-0.7110472,-0.2846632
1757686689026,8.717288,-9.945514,3.9384618,-0.8772025,-0.61941737,-0.20891592
1757686689044,8.829816,-11.336545,3.3758245,-0.8772025,-0.61941737,-0.20891592
1757686689045,8.829816,-11.336545,3.3758245,-0.9089675,-0.45570546,-0.11362094
1757686689064,9.141062,-12.5025215,4.259285,-0.9089675,-0.45570546,-0.11362094
1757686689065,9.141062,-12.5025215,4.259285,-0.43127087,-0.19303341,-0.0720821
1757686689082,10.21127,-11.592725,4.465186,-0.43127087,-0.19303341,-0.0720821
1757686689083,10.21127,-11.592725,4.465186,-0.21624629,-0.2321288,-0.015882496
1757686689103,11.269507,-12.648567,4.2640734,-0.21624629,-0.2321288,-0.015882496
1757686689105,11.269507,-12.648567,4.2640734,-0.28099802,-0.29565877,0.07941248
1757686689125,11.453861,-14.046782,4.280833,-0.28099802,-0.29565877,0.07941248
1757686689126,11.453861,-14.046782,4.280833,-0.14538592,-0.267559,0.013439035
1757686689143,11.145009,-13.223176,4.0078936,-0.14538592,-0.267559,0.013439035
1757686689145,11.145009,-13.223176,4.0078936,0.31887165,-0.13927728,-0.14049901
1757686689165,10.783484,-12.014104,4.110844,0.31887165,-0.13927728,-0.14049901
1757686689166,10.783484,-12.014104,4.110844,0.5839872,-0.018325957,-0.1966986
1757686689185,10.534488,-11.118672,4.24492,0.5839872,-0.018325957,-0.1966986
1757686689187,10.534488,-11.118672,4.24492,0.5693264,0.05009095,-0.14538592
1757686689202,10.702082,-11.283873,3.9815574,0.5693264,0.05009095,-0.14538592
1757686689203,10.702082,-11.283873,3.9815574,0.25045475,0.056199603,-0.06719518
1757686689223,10.726024,-11.899182,4.074931,0.25045475,0.056199603,-0.06719518
1757686689225,10.726024,-11.899182,4.074931,-0.061086524,0.17715092,-0.065973446
1757686689244,10.443508,-11.547235,4.807557,-0.061086524,0.17715092,-0.065973446
1757686689245,10.443508,-11.547235,4.807557,0.16126843,0.23335053,-0.06963864
1757686689264,10.189722,-10.407595,4.6375685,0.16126843,0.23335053,-0.06963864
1757686689266,10.189722,-10.407595,4.6375685,0.3200934,0.24190263,-0.08307768
1757686689284,10.845734,-9.165004,4.261679,0.3200934,0.24190263,-0.08307768
1757686689285,10.845734,-9.165004,4.261679,0.24801129,0.25778514,-0.07452556
1757686689304,11.911154,-9.246407,4.3263226,0.24801129,0.25778514,-0.07452556
1757686689305,11.911154,-9.246407,4.3263226,0.007330383,0.31520647,-0.07086037
1757686689324,10.891224,-10.208876,4.0174704,0.007330383,0.31520647,-0.07086037
1757686689325,10.891224,-10.208876,4.0174704,-0.22479841,0.52412236,-0.18203785
1757686689343,9.825804,-10.824186,3.6750996,-0.22479841,0.52412236,-0.18203785
1757686689345,9.825804,-10.824186,3.6750996,-0.081855945,0.68783426,-0.312763
1757686689362,9.600749,-10.1226845,3.4093432,-0.081855945,0.68783426,-0.312763
1757686689363,9.600749,-10.1226845,3.4093432,0.09896017,0.72326446,-0.40439278
1757686689383,9.3421755,-9.701305,3.6942532,0.09896017,0.72326446,-0.40439278
1757686689384,9.3421755,-9.701305,3.6942532,0.16249016,0.7623598,-0.408058
1757686689402,8.863335,-9.607931,4.211401,0.16249016,0.7623598,-0.408058
1757686689404,8.863335,-9.607931,4.211401,0.04153884,0.7819075,-0.3933972
1757686689423,9.093178,-10.220847,4.5657425,0.04153884,0.7819075,-0.3933972
1757686689425,9.093178,-10.220847,4.5657425,0.25289822,0.6743952,-0.2883284
1757686689443,8.987833,-9.28232,4.6519337,0.25289822,0.6743952,-0.2883284
1757686689444,8.987833,-9.28232,4.6519337,0.6426302,0.6927212,-0.26511553
1757686689462,8.602366,-8.133103,4.747702,0.6426302,0.6927212,-0.26511553
1757686689465,8.602366,-8.133103,4.747702,0.88453287,0.73426,-0.24923302
1757686689482,7.678205,-7.129933,4.548983,0.88453287,0.73426,-0.24923302
1757686689483,7.678205,-7.129933,4.548983,0.92485,0.8393288,-0.27366763
1757686689502,6.6893997,-6.1123967,4.2305546,0.92485,0.8393288,-0.27366763
1757686689504,6.6893997,-6.1123967,4.2305546,0.9016371,0.93951076,-0.32498032
1757686689523,5.899313,-5.1475334,3.8666358,0.9016371,0.93951076,-0.32498032
1757686689525,5.899313,-5.1475334,3.8666358,0.89552844,0.9859365,-0.34330627
1757686689543,5.161899,-4.0294414,3.6846764,0.89552844,0.9859365,-0.34330627
1757686689544,5.161899,-4.0294414,3.6846764,0.73426,1.0238101,-0.33475417
1757686689562,4.072537,-3.892972,3.241749,0.73426,1.0238101,-0.33475417
1757686689563,4.072537,-3.892972,3.241749,0.54367006,1.0445796,-0.27000242
1757686689583,3.205836,-3.7924154,2.743755,0.54367006,1.0445796,-0.27000242
1757686689585,3.205836,-3.7924154,2.743755,0.51068336,1.0189233,-0.18081611
1757686689602,2.5713725,-2.3822308,2.1164744,0.51068336,1.0189233,-0.18081611
1757686689603,2.5713725,-2.3822308,2.1164744,0.6768387,0.95905846,-0.03176499
1757686689623,1.922544,-1.7405846,1.6591818,0.6768387,0.95905846,-0.03176499
1757686689624,1.922544,-1.7405846,1.6591818,0.7147123,0.9272934,0.02443461
1757686689643,1.5801731,-1.3742718,1.055843,0.7147123,0.9272934,0.02443461
1757686689644,1.5801731,-1.3742718,1.055843,0.7122689,0.8918633,0.081855945
1757686689663,1.412579,-1.271321,0.49799395,0.7122689,0.8918633,0.081855945
1757686689664,1.412579,-1.271321,0.49799395,0.7122689,0.84421575,0.1282817
1757686689683,1.0199299,-1.2737153,0.23463176,0.7122689,0.84421575,0.1282817
1757686689685,1.0199299,-1.2737153,0.23463176,0.75502944,0.8222246,0.15271631
1757686689702,0.4381389,-0.9840169,0.19632454,0.75502944,0.8222246,0.15271631
1757686689703,0.4381389,-0.9840169,0.19632454,0.86376345,0.82833326,0.15515977
1757686689723,0.23702596,-0.4333505,0.5267244,0.86376345,0.82833326,0.15515977
1757686689725,0.23702596,-0.4333505,0.5267244,0.83199847,0.752586,0.12583824
1757686689741,0.25378537,-0.36391866,1.2066777,0.83199847,0.752586,0.12583824
1757686689742,0.25378537,-0.36391866,1.2066777,0.7855727,0.6719518,0.11484267
1757686689762,0.545878,-0.39264908,2.054225,0.7855727,0.6719518,0.11484267
1757686689764,0.545878,-0.39264908,2.054225,0.689056,0.54611355,0.13072516
1757686689781,1.9512744,-1.1994951,4.1659107,0.689056,0.54611355,0.13072516
1757686689783,1.9512744,-1.1994951,4.1659107,0.33108896,0.3640757,0.13072516
1757686689801,3.301604,-2.920926,6.3063273,0.33108896,0.3640757,0.13072516
1757686689802,3.301604,-2.920926,6.3063273,0.04886922,0.19303341,0.1685988
1757686689821,4.3837833,-4.6136265,8.073248,0.04886922,0.19303341,0.1685988
1757686689823,4.3837833,-4.6136265,8.073248,-0.25045475,-0.18570304,0.19058995
1757686689841,5.9663506,-5.554548,8.913613,-0.25045475,-0.18570304,0.19058995
1757686689842,5.9663506,-5.554548,8.913613,-0.5558874,-0.70005155,0.2284636
1757686689861,7.237672,-6.409278,8.796297,-0.5558874,-0.70005155,0.2284636
1757686689862,7.237672,-6.409278,8.796297,-0.70616025,-1.1227703,0.25778514
1757686689881,6.519411,-6.9024835,8.324639,-0.70616025,-1.1227703,0.25778514
1757686689882,6.519411,-6.9024835,8.324639,-0.6560693,-1.0360274,0.2003638
1757686689902,5.861006,-6.2249246,7.7428484,-0.6560693,-1.0360274,0.2003638
1757686689903,5.861006,-6.2249246,7.7428484,-0.42638394,-0.67073005,0.09407325
1757686689923,5.9041014,-4.927267,7.103596,-0.42638394,-0.67073005,0.09407325
1757686689924,5.9041014,-4.927267,7.103596,-0.13561209,-0.32742378,0.081855945
1757686689943,5.78918,-4.1132383,6.203377,-0.13561209,-0.32742378,0.081855945
1757686689944,5.78918,-4.1132383,6.203377,0.004886922,-0.07696902,0.09285152
1757686689962,4.673482,-3.9432502,5.4563856,0.004886922,-0.07696902,0.09285152
1757686689964,4.673482,-3.9432502,5.4563856,0.02443461,0.17592919,0.105068825
1757686689981,3.9504328,-3.964798,5.1259856,0.02443461,0.17592919,0.105068825
1757686689983,3.9504328,-3.964798,5.1259856,-0.02321288,0.19792034,0.11362094
1757686690004,3.7588966,-3.7541082,5.0661306,-0.02321288,0.19792034,0.11362094
1757686690005,3.7588966,-3.7541082,5.0661306,-0.11362094,0.058643065,0.111177474
1757686690022,3.9815574,-3.4596214,5.1235914,-0.11362094,0.058643065,0.111177474
1757686690024,3.9815574,-3.4596214,5.1235914,-0.29810223,-0.1441642,0.111177474
1757686690042,3.8259344,-3.691859,5.2002063,-0.29810223,-0.1441642,0.111177474
1757686690043,3.8259344,-3.691859,5.2002063,-0.5204572,-0.3359759,0.105068825
1757686690062,3.9384618,-3.6942532,5.5401826,-0.5204572,-0.3359759,0.105068825
1757686690063,3.9384618,-3.6942532,5.5401826,-0.75136423,-0.5571091,0.13072516
1757686690080,4.24492,-3.98874,5.41329,-0.75136423,-0.5571091,0.13072516
1757686690080,4.24492,-3.98874,5.41329,-0.9236283,-0.7330383,0.118507855
1757686690101,4.644751,-3.940856,4.9679685,-0.9236283,-0.7330383,0.118507855
1757686690102,4.644751,-3.940856,4.9679685,-1.0604621,-0.8576548,0.09285152
1757686690122,4.4699745,-3.7924154,4.548983,-1.0604621,-0.8576548,0.09285152
1757686690123,4.4699745,-3.7924154,4.548983,-1.1435398,-0.88453287,0.08674286
1757686690140,4.0342298,-4.1180267,3.0142999,-1.1435398,-0.88453287,0.08674286
1757686690141,4.0342298,-4.1180267,3.0142999,-0.9810496,-0.9126327,0.10873401
1757686690161,3.6822822,-3.3494883,1.8267759,-0.9810496,-0.9126327,0.10873401
1757686690162,3.6822822,-3.3494883,1.8267759,-0.7867944,-0.9126327,0.08674286
1757686690183,3.3039982,-2.528277,0.91697925,-0.7867944,-0.9126327,0.08674286
1757686690184,3.3039982,-2.528277,0.91697925,-0.77213365,-0.86009824,0.040317107
1757686690201,2.9376855,-2.741361,0.58897364,-0.77213365,-0.86009824,0.040317107
1757686690202,2.9376855,-2.741361,0.58897364,-0.82344633,-0.7684685,0.008552114
1757686690221,2.7988217,-2.8562827,0.4237737,-0.82344633,-0.7684685,0.008552114
1757686690222,2.7988217,-2.8562827,0.4237737,-0.6927212,-0.675617,0.013439035
1757686690241,2.7269957,-3.1004913,0.89303726,-0.6927212,-0.675617,0.013439035
1757686690242,2.7269957,-3.1004913,0.89303726,-0.50823987,-0.5888741,0.013439035
1757686690261,3.1028855,-3.1028855,1.6280571,-0.50823987,-0.5888741,0.013439035
1757686690263,3.1028855,-3.1028855,1.6280571,-0.48502702,-0.59498274,0.02321288
1757686690282,3.9791632,-3.86903,2.3295584,-0.48502702,-0.59498274,0.02321288
1757686690283,3.9791632,-3.86903,2.3295584,-0.6377433,-0.6646214,0.06963864
1757686690302,4.9895163,-5.1140146,2.9735985,-0.6377433,-0.6646214,0.06963864
1757686690303,4.9895163,-5.1140146,2.9735985,-0.8038987,-0.73792523,0.103847094
1757686690321,5.3127337,-6.10282,3.2321723,-0.8038987,-0.73792523,0.103847094
1757686690322,5.3127337,-6.10282,3.2321723,-0.63163465,-0.7415904,0.10751228
1757686690341,5.911284,-6.021417,3.098097,-0.63163465,-0.7415904,0.10751228
1757686690343,5.911284,-6.021417,3.098097,-0.37140608,-0.66706485,0.04153884
1757686690361,6.481104,-5.719748,3.110068,-0.37140608,-0.66706485,0.04153884
1757686690363,6.481104,-5.719748,3.110068,-0.2406809,-0.48991394,-0.02687807
1757686690380,6.9240313,-5.8705826,3.4524388,-0.2406809,-0.48991394,-0.02687807
1757686690382,6.9240313,-5.8705826,3.4524388,-0.31031954,-0.33841935,-0.034208454
1757686690401,7.5968018,-6.1411276,3.8426938,-0.31031954,-0.33841935,-0.034208454
1757686690403,7.5968018,-6.1411276,3.8426938,-0.4972443,-0.31031954,0.0061086523
1757686690421,8.24563,-7.079654,4.0773253,-0.4972443,-0.31031954,0.0061086523
1757686690422,8.24563,-7.079654,4.0773253,-0.61941737,-0.3042109,0.05009095
1757686690441,7.9343843,-8.750807,4.0054994,-0.61941737,-0.3042109,0.05009095
1757686690443,7.9343843,-8.750807,4.0054994,-0.40439278,-0.24923302,0.042760566
1757686690461,7.515399,-9.196129,4.039018,-0.40439278,-0.24923302,0.042760566
1757686690462,7.515399,-9.196129,4.039018,-0.03176499,-0.22602014,-0.037873644
1757686690481,8.046912,-8.367735,3.4931402,-0.03176499,-0.22602014,-0.037873644
1757686690482,8.046912,-8.367735,3.4931402,0.20891592,-0.26145032,-0.11362094
1757686690500,8.504205,-7.747637,3.3614593,0.20891592,-0.26145032,-0.11362094
1757686690501,8.504205,-7.747637,3.3614593,-0.112399206,-0.17470746,-0.09773844
1757686690520,8.961497,-9.358934,3.466804,-0.112399206,-0.17470746,-0.09773844
1757686690522,8.961497,-9.358934,3.466804,-0.4251622,-0.16371189,-0.02687807
1757686690541,9.090784,-10.939108,3.5793316,-0.4251622,-0.16371189,-0.02687807
1757686690542,9.090784,-10.939108,3.5793316,-0.5375614,-0.14538592,-0.028099801
1757686690561,9.198523,-11.259931,3.7110126,-0.5375614,-0.14538592,-0.028099801
1757686690562,9.198523,-11.259931,3.7110126,-0.32498032,-0.15882497,-0.064751714
1757686690581,9.334992,-10.845734,3.667917,-0.32498032,-0.15882497,-0.064751714
1757686690582,9.334992,-10.845734,3.667917,-0.07086037,-0.16982053,-0.11728613
1757686690601,9.64145,-10.3932295,3.7349546,-0.07086037,-0.16982053,-0.11728613
1757686690602,9.64145,-10.3932295,3.7349546,0.034208454,-0.18448131,-0.112399206
1757686690621,10.115502,-10.386047,3.5529952,0.034208454,-0.18448131,-0.112399206
1757686690622,10.115502,-10.386047,3.5529952,0.062308256,-0.20158553,-0.0720821
1757686690641,10.673351,-11.135432,3.4237084,0.062308256,-0.20158553,-0.0720821
1757686690642,10.673351,-11.135432,3.4237084,0.02687807,-0.17348573,-0.02076942
1757686690661,10.979809,-11.348516,3.4141316,0.02687807,-0.17348573,-0.02076942
1757686690662,10.979809,-11.348516,3.4141316,0.04520403,-0.10262536,-0.017104227
1757686690681,10.896012,-11.45865,4.0078936,0.04520403,-0.10262536,-0.017104227
1757686690682,10.896012,-11.45865,4.0078936,-0.07696902,0.034208454,-0.02443461
1757686690701,10.922348,-12.500127,4.259285,-0.07696902,0.034208454,-0.02443461
1757686690702,10.922348,-12.500127,4.259285,-0.008552114,-0.0012217305,-0.04153884
1757686690721,10.244789,-11.980585,4.072537,-0.008552114,-0.0012217305,-0.04153884
1757686690722,10.244789,-11.980585,4.072537,0.40439278,-0.065973446,-0.057421334
1757686690741,10.201694,-10.0508585,3.845088,0.40439278,-0.065973446,-0.057421334
1757686690742,10.201694,-10.0508585,3.845088,0.5656612,-0.12095132,-0.034208454
1757686690761,10.443508,-9.514558,3.667917,0.5656612,-0.12095132,-0.034208454
1757686690762,10.443508,-9.514558,3.667917,0.14294247,-0.1001819,-0.0036651916
1757686690781,10.184934,-10.647015,3.0669725,0.14294247,-0.1001819,-0.0036651916
1757686690782,10.184934,-10.647015,3.0669725,-0.1160644,-0.04642576,0.04153884
1757686690800,9.859323,-10.560823,3.0071173,-0.1160644,-0.04642576,0.04153884
1757686690802,9.859323,-10.560823,3.0071173,-0.04153884,0.04642576,-0.007330383
1757686690822,8.9998045,-10.230424,2.89459,-0.04153884,0.04642576,-0.007330383
1757686690823,8.9998045,-10.230424,2.89459,0.13316862,0.09773844,-0.07452556
1757686690840,8.99741,-9.763555,3.3183637,0.13316862,0.09773844,-0.07452556
1757686690842,8.99741,-9.763555,3.3183637,0.27366763,0.032986723,-0.111177474
1757686690861,9.679757,-9.744401,3.3854012,0.27366763,0.032986723,-0.111177474
1757686690862,9.679757,-9.744401,3.3854012,0.31764993,-0.06352998,-0.05131268
1757686690879,9.394848,-10.5440645,3.5745432,0.31764993,-0.06352998,-0.05131268
1757686690880,9.394848,-10.5440645,3.5745432,0.34208453,-0.040317107,-0.05009095
1757686690899,9.208099,-10.58716,3.7445314,0.34208453,-0.040317107,-0.05009095
1757686690900,9.208099,-10.58716,3.7445314,0.5045747,-0.058643065,-0.04642576
1757686690919,9.425972,-10.084377,3.5075054,0.5045747,-0.058643065,-0.04642576
1757686690920,9.425972,-10.084377,3.5075054,0.689056,-0.062308256,-0.057421334
1757686690940,9.3661175,-8.640674,3.5434184,0.689056,-0.062308256,-0.057421334
1757686690941,9.3661175,-8.640674,3.5434184,0.6805039,0.04642576,-0.112399206
1757686690960,9.301474,-8.238448,4.0677485,0.6805039,0.04642576,-0.112399206
1757686690961,9.301474,-8.238448,4.0677485,0.44348818,0.21868975,-0.13683382
1757686690979,9.277532,-8.564059,4.189853,0.44348818,0.21868975,-0.13683382
1757686690981,9.277532,-8.564059,4.189853,0.2773328,0.33108896,-0.111177474
1757686690999,9.028535,-8.516175,3.8307228,0.2773328,0.33108896,-0.111177474
1757686691001,9.028535,-8.516175,3.8307228,0.2919936,0.44348818,-0.089186326
1757686691020,8.195353,-8.149862,3.8474822,0.2919936,0.44348818,-0.089186326
1757686691022,8.195353,-8.149862,3.8474822,0.39095375,0.59742624,-0.10995574
1757686691039,7.410054,-6.8665705,3.5553896,0.39095375,0.59742624,-0.10995574
1757686691040,7.410054,-6.8665705,3.5553896,0.6010914,0.74281216,-0.13561209
1757686691059,6.8785415,-5.8083334,3.301604,0.6010914,0.74281216,-0.13561209
1757686691061,6.8785415,-5.8083334,3.301604,0.6585127,0.79901177,-0.1441642
1757686691080,6.227319,-4.8985367,2.6360161,0.6585127,0.79901177,-0.1441642
1757686691081,6.227319,-4.8985367,2.6360161,0.51923543,0.84788096,-0.18692477
1757686691099,5.5976434,-4.297592,2.5067291,0.51923543,0.84788096,-0.18692477
1757686691101,5.5976434,-4.297592,2.5067291,0.31642818,0.8918633,-0.2284636
1757686691120,4.912902,-4.122815,2.5953147,0.31642818,0.8918633,-0.2284636
1757686691121,4.912902,-4.122815,2.5953147,0.22113322,0.95905846,-0.2883284
1757686691139,4.0198646,-4.048595,2.0733786,0.22113322,0.95905846,-0.2883284
1757686691140,4.0198646,-4.048595,2.0733786,0.3371976,1.001819,-0.34330627
1757686691159,2.7605145,-3.3734303,1.4939818,0.3371976,1.001819,-0.34330627
1757686691161,2.7605145,-3.3734303,1.4939818,0.5180137,1.0213667,-0.38606682
1757686691179,1.8291701,-2.2697031,1.1803415,0.5180137,1.0213667,-0.38606682
1757686691181,1.8291701,-2.2697031,1.1803415,0.6743952,1.065349,-0.44593164
1757686691199,1.42455,-1.2258313,1.0534488,0.6743952,1.065349,-0.44593164
1757686691201,1.42455,-1.2258313,1.0534488,0.7012733,1.0555751,-0.44226643
1757686691218,1.3551182,-0.92176765,1.0295067,0.7012733,1.0555751,-0.44226643
1757686691219,1.3551182,-0.92176765,1.0295067,0.49357912,1.0042624,-0.39950588
1757686691237,1.0654198,-1.2497733,0.8595184,0.49357912,1.0042624,-0.39950588
1757686691239,1.0654198,-1.2497733,0.8595184,0.408058,1.0115929,-0.32498032
1757686691258,0.62009823,-1.4269443,0.9552865,0.408058,1.0115929,-0.32498032
1757686691259,0.62009823,-1.4269443,0.9552865,0.3885103,0.9272934,-0.22724187
1757686691279,0.9576807,-1.3838485,0.9768343,0.3885103,0.9272934,-0.22724187
1757686691279,0.9576807,-1.3838485,0.9768343,0.44959682,0.7501425,-0.12339478
1757686691299,2.0853498,-1.6184803,1.4891934,0.44959682,0.7501425,-0.12339478
1757686691300,2.0853498,-1.6184803,1.4891934,0.3481932,0.59986967,-0.08552113
1757686691319,2.7102363,-1.8866309,2.755726,0.3481932,0.59986967,-0.08552113
1757686691321,2.7102363,-1.8866309,2.755726,0.25289822,0.6401868,-0.07819075
1757686691338,3.5817258,-2.7485435,4.256891,0.25289822,0.6401868,-0.07819075
1757686691339,3.5817258,-2.7485435,4.256891,0.14905111,0.6059783,-0.095294975
1757686691359,4.6950297,-3.821146,5.8681884,0.14905111,0.6059783,-0.095294975
1757686691361,4.6950297,-3.821146,5.8681884,-0.052534413,0.38728857,-0.10629055
1757686691379,6.169858,-4.6519337,6.9360023,-0.052534413,0.38728857,-0.10629055
1757686691380,6.169858,-4.6519337,6.9360023,-0.37018433,0.040317107,-0.12583824
1757686691399,7.716512,-5.0661306,7.4842744,-0.37018433,0.040317107,-0.12583824
1757686691400,7.716512,-5.0661306,7.4842744,-1.047023,-0.5412266,-0.07696902
1757686691419,7.3669586,-6.4068837,7.16824,-1.047023,-0.5412266,-0.07696902
1757686691420,7.3669586,-6.4068837,7.16824,-1.3744467,-0.5705481,-0.17104226
1757686691438,6.7923503,-7.3310456,6.691794,-1.3744467,-0.5705481,-0.17104226
1757686691439,6.7923503,-7.3310456,6.691794,-1.0934488,-0.41172317,-0.19792034
1757686691459,6.1530986,-6.907272,6.1530986,-1.0934488,-0.41172317,-0.19792034
1757686691460,6.1530986,-6.907272,6.1530986,-0.50701815,-0.18203785,-0.1966986
1757686691479,5.3941364,-5.8681884,5.631162,-0.50701815,-0.18203785,-0.1966986
1757686691480,5.3941364,-5.8681884,5.631162,0.034208454,0.032986723,-0.22479841
1757686691498,5.140351,-4.405331,5.269638,0.034208454,0.032986723,-0.22479841
1757686691500,5.140351,-4.405331,5.269638,0.3042109,0.07941248,-0.18936823
1757686691519,4.8961425,-3.5362358,5.133168,0.3042109,0.07941248,-0.18936823
1757686691520,4.8961425,-3.5362358,5.133168,0.47647488,0.036651913,-0.080634214
1757686691539,5.011064,-3.1771057,4.8243165,0.47647488,0.036651913,-0.080634214
1757686691541,5.011064,-3.1771057,4.8243165,0.2846632,-0.081855945,0.013439035
1757686691557,5.3486466,-3.8666358,4.709395,0.2846632,-0.081855945,0.013439035
1757686691558,5.3486466,-3.8666358,4.709395,-0.013439035,-0.22724187,0.09407325
1757686691577,5.2887917,-4.307169,4.876989,-0.013439035,-0.22724187,0.09407325
1757686691579,5.2887917,-4.307169,4.876989,-0.33964106,-0.3359759,0.089186326
1757686691598,5.2528787,-4.606444,4.9559975,-0.33964106,-0.3359759,0.089186326
1757686691599,5.2528787,-4.606444,4.9559975,-0.46181414,-0.4373795,0.061086524
1757686691619,5.133168,-4.4244847,4.9320555,-0.46181414,-0.4373795,0.061086524
1757686691620,5.133168,-4.4244847,4.9320555,-0.56321776,-0.5216789,0.036651913
1757686691638,5.145139,-4.096479,4.687847,-0.56321776,-0.5216789,0.036651913
1757686691640,5.145139,-4.096479,4.687847,-0.6389651,-0.5876524,0.04153884
1757686691658,5.073313,-4.060566,4.7141833,-0.6389651,-0.5876524,0.04153884
1757686691659,5.073313,-4.060566,4.7141833,-0.74036866,-0.61819565,0.0720821
1757686691678,4.5681367,-4.0198646,4.630386,-0.74036866,-0.61819565,0.0720821
1757686691679,4.5681367,-4.0198646,4.630386,-0.82711154,-0.6010914,0.111177474
1757686691695,4.3119574,-4.0797195,4.110844,-0.82711154,-0.6010914,0.111177474
1757686691696,4.3119574,-4.0797195,4.110844,-0.88453287,-0.6450737,0.14782938
1757686691715,4.0462008,-4.5537715,2.9831753,-0.88453287,-0.6450737,0.14782938
1757686691715,4.0462008,-4.5537715,2.9831753,-0.8772025,-0.68661255,0.1600467
1757686691737,4.1060557,-4.462792,2.1068976,-0.8772025,-0.68661255,0.1600467
1757686691738,4.1060557,-4.462792,2.1068976,-0.70616025,-0.6805039,0.18448131
1757686691757,4.189853,-3.58412,1.30484,-0.70616025,-0.6805039,0.18448131
1757686691758,4.189853,-3.58412,1.30484,-0.50946164,-0.5045747,0.20280726
1757686691777,3.8642416,-3.301604,1.2090719,-0.50946164,-0.5045747,0.20280726
1757686691779,3.8642416,-3.301604,1.2090719,-0.40683624,-0.376293,0.21868975
1757686691798,3.3375173,-2.9472623,1.2330139,-0.40683624,-0.376293,0.21868975
1757686691799,3.3375173,-2.9472623,1.2330139,-0.25411993,-0.29810223,0.24190263
1757686691818,3.3734303,-2.944868,1.1803415,-0.25411993,-0.29810223,0.24190263
1757686691819,3.3734303,-2.944868,1.1803415,-0.18936823,-0.25900686,0.23090707
1757686691838,3.892972,-3.0909145,1.079785,-0.18936823,-0.25900686,0.23090707
1757686691839,3.892972,-3.0909145,1.079785,-0.23335053,-0.2602286,0.19547687
1757686691857,4.4220905,-3.4165258,1.3910311,-0.23335053,-0.2602286,0.19547687
1757686691858,4.4220905,-3.4165258,1.3910311,-0.25289822,-0.25289822,0.16615535
1757686691878,5.0781016,-3.8019924,1.9680338,-0.25289822,-0.25289822,0.16615535
1757686691879,5.0781016,-3.8019924,1.9680338,-0.3811799,-0.21868975,0.12339478
1757686691898,5.6000376,-4.841076,2.8179753,-0.3811799,-0.21868975,0.12339478
1757686691899,5.6000376,-4.841076,2.8179753,-0.52290064,-0.2003638,0.089186326
1757686691918,5.801151,-5.98311,3.2202013,-0.52290064,-0.2003638,0.089186326
1757686691919,5.801151,-5.98311,3.2202013,-0.5131268,-0.22602014,0.02321288
1757686691937,6.3206925,-6.2608376,3.2561142,-0.5131268,-0.22602014,0.02321288
1757686691938,6.3206925,-6.2608376,3.2561142,-0.32620203,-0.36163223,-0.052534413
1757686691957,6.6367273,-6.2967505,3.454833,-0.32620203,-0.36163223,-0.052534413
1757686691958,6.6367273,-6.2967505,3.454833,-0.37995818,-0.36285394,-0.065973446
1757686691977,7.3286514,-7.240066,3.490746,-0.37995818,-0.36285394,-0.065973446
1757686691979,7.3286514,-7.240066,3.490746,-0.43127087,-0.38362336,-0.021991149
1757686691997,7.9487495,-7.955932,3.6272156,-0.43127087,-0.38362336,-0.021991149
1757686691998,7.9487495,-7.955932,3.6272156,-0.4007276,-0.41783184,0.030543262
1757686692018,7.920019,-8.3629465,3.7373488,-0.4007276,-0.41783184,0.030543262
1757686692019,7.920019,-8.3629465,3.7373488,-0.32375857,-0.36774087,0.02565634
1757686692038,7.656657,-8.224083,3.7900212,-0.32375857,-0.36774087,0.02565634
1757686692039,7.656657,-8.224083,3.7900212,-0.23457226,-0.3286455,0.02565634
1757686692057,8.224083,-8.367735,3.6750996,-0.23457226,-0.3286455,0.02565634
1757686692058,8.224083,-8.367735,3.6750996,-0.14049901,-0.34574974,0.04642576
1757686692078,8.983045,-8.796297,3.5314474,-0.14049901,-0.34574974,0.04642576
1757686692079,8.983045,-8.796297,3.5314474,-0.13439035,-0.31764993,0.06719518
1757686692097,9.323022,-9.423578,3.53863,-0.13439035,-0.31764993,0.06719518
1757686692098,9.323022,-9.423578,3.53863,-0.21502456,-0.2687807,0.07941248
1757686692117,9.270349,-9.892841,3.7301662,-0.21502456,-0.2687807,0.07941248
1757686692119,9.270349,-9.892841,3.7301662,-0.22357668,-0.20280726,0.059864793
1757686692136,9.064447,-9.89763,3.5075054,-0.22357668,-0.20280726,0.059864793
1757686692137,9.064447,-9.89763,3.5075054,-0.05497787,-0.19058995,0.032986723
1757686692157,9.260772,-9.435549,3.1507695,-0.05497787,-0.19058995,0.032986723
1757686692158,9.260772,-9.435549,3.1507695,0.10995574,-0.1966986,0.032986723
1757686692176,9.847352,-9.0429,2.6982653,0.10995574,-0.1966986,0.032986723
1757686692178,9.847352,-9.0429,2.6982653,0.111177474,-0.14538592,0.018325957
1757686692197,9.931149,-9.414001,2.9999347,0.111177474,-0.14538592,0.018325957
1757686692198,9.931149,-9.414001,2.9999347,0.036651913,-0.0012217305,-0.014660766
1757686692217,9.94312,-10.292673,3.1890767,0.036651913,-0.0012217305,-0.014660766
1757686692219,9.94312,-10.292673,3.1890767,0.004886922,-0.0012217305,-0.029321533
1757686692238,10.702082,-10.500969,3.3303347,0.004886922,-0.0012217305,-0.029321533
1757686692239,10.702082,-10.500969,3.3303347,0.019547688,-0.13072516,0.010995574
1757686692257,11.575965,-10.618284,3.4500446,0.019547688,-0.13072516,0.010995574
1757686692258,11.575965,-10.618284,3.4500446,-0.04520403,-0.2003638,0.014660766
1757686692277,10.907983,-11.410766,3.6631286,-0.04520403,-0.2003638,0.014660766
1757686692278,10.907983,-11.410766,3.6631286,-0.017104227,-0.13927728,-0.042760566
1757686692296,10.378864,-11.408371,3.7325604,-0.017104227,-0.13927728,-0.042760566
1757686692297,10.378864,-11.408371,3.7325604,0.26267207,-0.13072516,-0.12461651
1757686692317,10.58716,-10.172963,3.6391866,0.26267207,-0.13072516,-0.12461651
1757686692318,10.58716,-10.172963,3.6391866,0.36896262,-0.17104226,-0.14049901
1757686692337,10.876859,-9.56723,3.6176388,0.36896262,-0.17104226,-0.14049901
1757686692338,10.876859,-9.56723,3.6176388,0.21991149,-0.1563815,-0.07574729
1757686692359,10.481815,-10.383653,3.6535518,0.21991149,-0.1563815,-0.07574729
1757686692360,10.481815,-10.383653,3.6535518,0.007330383,-0.06719518,-0.015882496
1757686692377,10.448297,-11.305421,3.3997664,0.007330383,-0.06719518,-0.015882496
1757686692378,10.448297,-11.305421,3.3997664,0.015882496,-0.04642576,-0.02076942
1757686692396,10.235212,-11.008539,3.107674,0.015882496,-0.04642576,-0.02076942
1757686692397,10.235212,-11.008539,3.107674,0.23823744,0.013439035,-0.103847094
1757686692417,9.679757,-9.713276,3.1364043,0.23823744,0.013439035,-0.103847094
1757686692418,9.679757,-9.713276,3.1364043,0.39095375,0.103847094,-0.15515977
1757686692437,9.631873,-9.004593,3.0573955,0.39095375,0.103847094,-0.15515977
1757686692438,9.631873,-9.004593,3.0573955,0.2846632,0.1441642,-0.15271631
1757686692457,9.55047,-9.050082,3.095703,0.2846632,0.1441642,-0.15271631
1757686692458,9.55047,-9.050082,3.095703,0.20280726,0.19792034,-0.11362094
1757686692477,9.370906,-9.258378,3.277662,0.20280726,0.19792034,-0.11362094
1757686692478,9.370906,-9.258378,3.277662,0.12705997,0.30909783,-0.07941248
1757686692497,9.232041,-9.076419,3.5098996,0.12705997,0.30909783,-0.07941248
1757686692498,9.232041,-9.076419,3.5098996,0.20280726,0.36774087,-0.0720821
1757686692517,9.174581,-8.9758625,3.5673606,0.20280726,0.36774087,-0.0720821
1757686692518,9.174581,-8.9758625,3.5673606,0.312763,0.39461896,-0.087964594
1757686692537,8.966286,-8.4587145,3.5170822,0.312763,0.39461896,-0.087964594
1757686692538,8.966286,-8.4587145,3.5170822,0.47525316,0.4251622,-0.12095132
1757686692557,8.698134,-7.764396,3.229778,0.47525316,0.4251622,-0.12095132
1757686692558,8.698134,-7.764396,3.229778,0.59864795,0.47158796,-0.16126843
1757686692576,8.133103,-6.8881183,3.1268275,0.59864795,0.47158796,-0.16126843
1757686692578,8.133103,-6.8881183,3.1268275,0.61086524,0.56077427,-0.1881465
1757686692597,7.405266,-6.631939,3.1986535,0.61086524,0.56077427,-0.1881465
1757686692598,7.405266,-6.631939,3.1986535,0.6047566,0.6389651,-0.20158553
1757686692617,6.7564373,-6.2368956,2.980781,0.6047566,0.6389651,-0.20158553
1757686692618,6.7564373,-6.2368956,2.980781,0.63285637,0.6743952,-0.19547687
1757686692637,6.2345014,-5.533,2.8802247,0.63285637,0.6743952,-0.19547687
1757686692638,6.2345014,-5.533,2.8802247,0.6780604,0.6792821,-0.17592919
1757686692656,5.1140146,-4.5274353,2.753332,0.6780604,0.6792821,-0.17592919
1757686692658,5.1140146,-4.5274353,2.753332,0.73426,0.7476991,-0.16737708
1757686692675,4.548983,-4.2185836,2.6408045,0.73426,0.7476991,-0.16737708
1757686692677,4.548983,-4.2185836,2.6408045,0.7501425,0.73426,-0.14538592
1757686692696,4.197036,-3.4117374,2.4468741,0.7501425,0.73426,-0.14538592
1757686692698,4.197036,-3.4117374,2.4468741,0.68661255,0.68661255,-0.12583824
1757686692717,3.6463692,-2.789245,2.195483,0.68661255,0.68661255,-0.12583824
1757686692718,3.6463692,-2.789245,2.195483,0.4654793,0.6365216,-0.10873401
1757686692735,3.2273839,-2.9735985,1.8962077,0.4654793,0.6365216,-0.10873401
1757686692737,3.2273839,-2.9735985,1.8962077,0.32742378,0.57543504,-0.052534413
1757686692757,3.0573955,-3.7924154,1.7908629,0.32742378,0.57543504,-0.052534413
1757686692758,3.0573955,-3.7924154,1.7908629,0.4605924,0.48258355,-0.012217305
1757686692775,2.5139117,-3.3183637,1.8459295,0.4605924,0.48258355,-0.012217305
1757686692777,2.5139117,-3.3183637,1.8459295,0.73548174,0.42271876,-0.029321533
1757686692796,2.0925324,-1.9656396,1.5897499,0.73548174,0.42271876,-0.029321533
1757686692797,2.0925324,-1.9656396,1.5897499,0.93828905,0.36163223,-0.013439035
1757686692815,2.147599,-1.3192052,1.5227122,0.93828905,0.36163223,-0.013439035
1757686692817,2.147599,-1.3192052,1.5227122,0.89675015,0.28221974,0.04520403
1757686692836,2.4612393,-1.3311762,1.721431,0.89675015,0.28221974,0.04520403
1757686692837,2.4612393,-1.3311762,1.721431,0.675617,0.2919936,0.14172074
1757686692856,3.0358477,-1.5777789,2.1308396,0.675617,0.2919936,0.14172074
1757686692857,3.0358477,-1.5777789,2.1308396,0.47036624,0.3494149,0.18448131
1757686692875,3.277662,-2.2266076,2.9017725,0.47036624,0.3494149,0.18448131
1757686692876,3.277662,-2.2266076,2.9017725,0.27488935,0.44226643,0.17104226
1757686692895,4.0054994,-2.695871,3.7541082,0.27488935,0.44226643,0.17104226
1757686692897,4.0054994,-2.695871,3.7541082,0.16493362,0.46181414,0.14905111
1757686692916,4.9344497,-3.3662477,5.0182467,0.16493362,0.46181414,0.14905111
1757686692917,4.9344497,-3.3662477,5.0182467,0.039095376,0.45570546,0.13439035
1757686692935,5.161899,-4.390966,5.911284,0.039095376,0.45570546,0.13439035
1757686692937,5.161899,-4.390966,5.911284,-0.028099801,0.43004912,0.1001819
1757686692954,5.41329,-4.606444,6.066907,-0.028099801,0.43004912,0.1001819
1757686692956,5.41329,-4.606444,6.066907,-0.015882496,0.2125811,0.052534413
1757686692975,6.540959,-4.3119574,6.3230867,-0.015882496,0.2125811,0.052534413
1757686692976,6.540959,-4.3119574,6.3230867,-0.15271631,-0.25289822,0.0720821
1757686692995,6.933608,-5.0996494,6.2488666,-0.15271631,-0.25289822,0.0720821
1757686692997,6.933608,-5.0996494,6.2488666,-0.47403142,-0.42638394,0.035430185
1757686693015,6.6750345,-6.4499793,5.923255,-0.47403142,-0.42638394,0.035430185
1757686693017,6.6750345,-6.4499793,5.923255,-0.37873647,-0.41416663,0.039095376
1757686693035,6.5816603,-5.995081,5.6215854,-0.37873647,-0.41416663,0.039095376
1757686693037,6.5816603,-5.995081,5.6215854,-0.03176499,-0.30176744,0.036651913
1757686693056,6.3805475,-5.3079453,5.5258174,-0.03176499,-0.30176744,0.036651913
1757686693057,6.3805475,-5.3079453,5.5258174,0.17715092,-0.15271631,0.029321533
1757686693076,5.9878983,-4.6519337,5.717354,0.17715092,-0.15271631,0.029321533
1757686693077,5.9878983,-4.6519337,5.717354,0.27366763,-0.019547688,0.05497787
1757686693095,5.758055,-4.261679,5.913678,0.27366763,-0.019547688,0.05497787
1757686693096,5.758055,-4.261679,5.913678,0.16982053,0.012217305,0.10873401
1757686693116,5.841852,-4.6495395,5.791574,0.16982053,0.012217305,0.10873401
1757686693117,5.841852,-4.6495395,5.791574,-0.02076942,-0.047647487,0.13805555
1757686693135,5.8681884,-5.0876784,5.4803276,-0.02076942,-0.047647487,0.13805555
1757686693137,5.8681884,-5.0876784,5.4803276,-0.089186326,-0.09896017,0.12217305
1757686693154,5.580884,-5.231331,5.351041,-0.089186326,-0.09896017,0.12217305
1757686693156,5.580884,-5.231331,5.351041,-0.12339478,-0.096516706,0.09162979
1757686693173,5.3342814,-4.7046065,5.2983685,-0.12339478,-0.096516706,0.09162979
1757686693174,5.3342814,-4.7046065,5.2983685,-0.09773844,-0.08307768,0.061086524
1757686693195,5.4085016,-3.9815574,5.1547165,-0.09773844,-0.08307768,0.061086524
1757686693196,5.4085016,-3.9815574,5.1547165,-0.1685988,-0.12583824,0.08307768
1757686693214,5.4922986,-3.9719806,5.130774,-0.1685988,-0.12583824,0.08307768
1757686693215,5.4922986,-3.9719806,5.130774,-0.37873647,-0.17104226,0.10873401
1757686693232,5.377377,-4.5394063,5.1642933,-0.37873647,-0.17104226,0.10873401
1757686693234,5.377377,-4.5394063,5.1642933,-0.50946164,-0.23823744,0.12339478
1757686693255,5.035006,-4.711789,4.972757,-0.50946164,-0.23823744,0.12339478
1757686693257,5.035006,-4.711789,4.972757,-0.50823987,-0.29932398,0.11728613
1757686693275,4.8147397,-4.687847,4.7189717,-0.50823987,-0.29932398,0.11728613
1757686693276,4.8147397,-4.687847,4.7189717,-0.43371433,-0.36651915,0.1001819
1757686693295,4.8027687,-4.43885,4.2999864,-0.43371433,-0.36651915,0.1001819
1757686693297,4.8027687,-4.43885,4.2999864,-0.29443705,-0.41416663,0.09162979
1757686693315,4.9416323,-3.8235402,3.9911342,-0.29443705,-0.41416663,0.09162979
1757686693316,4.9416323,-3.8235402,3.9911342,-0.29810223,-0.43493605,0.09773844
1757686693335,4.7309427,-3.620033,3.7852328,-0.29810223,-0.43493605,0.09773844
1757686693336,4.7309427,-3.620033,3.7852328,-0.41050145,-0.4569272,0.10751228
1757686693354,4.237737,-3.727772,3.5793316,-0.41050145,-0.4569272,0.10751228
1757686693356,4.237737,-3.727772,3.5793316,-0.49480084,-0.47769663,0.12705997
1757686693375,3.8546648,-3.763685,3.1052797,-0.49480084,-0.47769663,0.12705997
1757686693376,3.8546648,-3.763685,3.1052797,-0.30543262,-0.4972443,0.15271631
1757686693394,3.821146,-3.6990416,2.2960393,-0.30543262,-0.4972443,0.15271631
1757686693395,3.821146,-3.6990416,2.2960393,-0.062308256,-0.45081854,0.172264
1757686693413,4.0318356,-3.4237084,1.9009962,-0.062308256,-0.45081854,0.172264
1757686693415,4.0318356,-3.4237084,1.9009962,0.05375614,-0.32742378,0.17104226
1757686693434,4.1659107,-3.1364043,1.9369092,0.05375614,-0.32742378,0.17104226
1757686693435,4.1659107,-3.1364043,1.9369092,0.0,-0.16982053,0.15149458
1757686693454,4.1395745,-3.383007,2.0087352,0.0,-0.16982053,0.15149458
1757686693455,4.1395745,-3.383007,2.0087352,-0.13561209,-0.042760566,0.13561209
1757686693474,4.3023806,-3.9791632,2.1045034,-0.13561209,-0.042760566,0.13561209
1757686693476,4.3023806,-3.9791632,2.1045034,-0.28955013,-0.007330383,0.12950343
1757686693493,4.606444,-4.63278,2.4013844,-0.28955013,-0.007330383,0.12950343
1757686693495,4.606444,-4.63278,2.4013844,-0.23823744,0.032986723,0.10995574
1757686693515,4.6495395,-4.5418005,2.743755,-0.23823744,0.032986723,0.10995574
1757686693516,4.6495395,-4.5418005,2.743755,-0.004886922,0.081855945,0.07452556
1757686693534,4.72376,-3.8857894,3.2202013,-0.004886922,0.081855945,0.07452556
1757686693536,4.72376,-3.8857894,3.2202013,0.17104226,0.07696902,0.04520403
1757686693554,5.5042696,-4.039018,3.7660792,0.17104226,0.07696902,0.04520403
1757686693555,5.5042696,-4.039018,3.7660792,0.103847094,0.013439035,0.062308256
1757686693572,6.375759,-5.5737014,3.8642416,0.103847094,0.013439035,0.062308256
1757686693573,6.375759,-5.5737014,3.8642416,-0.19181168,-0.07086037,0.052534413
1757686693592,6.2967505,-5.8945246,4.0701427,-0.19181168,-0.07086037,0.052534413
1757686693593,6.2967505,-5.8945246,4.0701427,-0.2565634,-0.118507855,-0.004886922
1757686693614,6.0716953,-6.181829,4.6016555,-0.2565634,-0.118507855,-0.004886922
1757686693615,6.0716953,-6.181829,4.6016555,-0.172264,-0.11362094,-0.06719518
1757686693634,6.3661823,-6.540959,5.3199162,-0.172264,-0.11362094,-0.06719518
1757686693635,6.3661823,-6.540959,5.3199162,0.040317107,-0.07696902,-0.13316862
1757686693654,6.5696893,-6.9407907,5.329493,0.040317107,-0.07696902,-0.13316862
1757686693656,6.5696893,-6.9407907,5.329493,0.48258355,-0.012217305,-0.16493362
1757686693674,6.8929067,-6.5265937,5.145139,0.48258355,-0.012217305,-0.16493362
1757686693675,6.8929067,-6.5265937,5.145139,0.8051204,-0.09773844,-0.11362094
1757686693693,7.589619,-6.1195793,4.879383,0.8051204,-0.09773844,-0.11362094
1757686693694,7.589619,-6.1195793,4.879383,0.7623598,-0.17837265,-0.059864793
1757686693714,7.335834,-5.9998693,4.879383,0.7623598,-0.17837265,-0.059864793
1757686693715,7.335834,-5.9998693,4.879383,0.5326745,-0.12461651,-0.0720821
1757686693732,7.3071036,-7.2783732,4.6495395,0.5326745,-0.12461651,-0.0720821
1757686693734,7.3071036,-7.2783732,4.6495395,0.1685988,-0.065973446,-0.015882496
1757686693754,8.130709,-8.209718,4.6112323,0.1685988,-0.065973446,-0.015882496
1757686693755,8.130709,-8.209718,4.6112323,0.06963864,-0.10751228,0.037873644
1757686693774,8.379706,-8.271967,5.116409,0.06963864,-0.10751228,0.037873644
1757686693775,8.379706,-8.271967,5.116409,0.06719518,-0.08674286,0.05009095
1757686693793,7.704541,-7.6829934,5.7724204,0.06719518,-0.08674286,0.05009095
1757686693794,7.704541,-7.6829934,5.7724204,-0.118507855,-0.0012217305,0.02076942
1757686693814,7.9966335,-8.480263,6.229713,-0.118507855,-0.0012217305,0.02076942
1757686693815,7.9966335,-8.480263,6.229713,-0.43493605,0.0,0.09407325
1757686693834,9.203311,-9.258378,6.7803793,-0.43493605,0.0,0.09407325
1757686693835,9.203311,-9.258378,6.7803793,-0.4654793,-0.039095376,0.172264
1757686693854,9.619903,-9.64145,7.350199,-0.4654793,-0.039095376,0.172264
1757686693855,9.619903,-9.64145,7.350199,-0.18936823,-0.019547688,0.17104226
1757686693874,8.973468,-9.710882,7.0461354,-0.18936823,-0.019547688,0.17104226
1757686693875,8.973468,-9.710882,7.0461354,0.019547688,-0.02321288,0.12217305
1757686693895,8.793902,-9.931149,6.622362,0.019547688,-0.02321288,0.12217305
1757686693896,8.793902,-9.931149,6.622362,0.22602014,-0.035430185,0.12217305
1757686693914,9.677363,-9.057265,6.8043213,0.22602014,-0.035430185,0.12217305
1757686693915,9.677363,-9.057265,6.8043213,0.5729916,0.065973446,0.23823744
1757686693934,9.65821,-8.796297,6.6367273,0.5729916,0.065973446,0.23823744
1757686693935,9.65821,-8.796297,6.6367273,0.49602258,0.10629055,0.2932153
1757686693954,10.110714,-9.074024,6.184223,0.49602258,0.10629055,0.2932153
1757686693955,10.110714,-9.074024,6.184223,0.23579398,0.043982297,0.2919936
1757686693973,10.517728,-9.560047,5.985504,0.23579398,0.043982297,0.2919936
1757686693975,10.517728,-9.560047,5.985504,-0.043982297,0.017104227,0.29932398
1757686693991,9.935937,-10.431537,6.0142345,-0.043982297,0.017104227,0.29932398
1757686693992,9.935937,-10.431537,6.0142345,-0.14782938,0.09285152,0.2125811
1757686694013,9.155427,-10.084377,6.1004257,-0.14782938,0.09285152,0.2125811
1757686694014,9.155427,-10.084377,6.1004257,0.06719518,0.13072516,0.073303826
1757686694033,9.035717,-8.6334915,6.3470287,0.06719518,0.13072516,0.073303826
1757686694034,9.035717,-8.6334915,6.3470287,0.15027285,0.080634214,0.0
1757686694053,9.255983,-8.1881695,6.4978633,0.15027285,0.080634214,0.0
1757686694054,9.255983,-8.1881695,6.4978633,-0.019547688,0.06352998,-0.02443461
1757686694073,9.050082,-8.6095495,6.5840545,-0.019547688,0.06352998,-0.02443461
1757686694074,9.050082,-8.6095495,6.5840545,-0.29810223,0.080634214,-0.052534413
1757686694093,8.2169,-9.176975,6.6271505,-0.29810223,0.080634214,-0.052534413
1757686694094,8.2169,-9.176975,6.6271505,-0.28099802,0.11728613,-0.07941248
1757686694113,8.118738,-9.799467,6.2752028,-0.28099802,0.11728613,-0.07941248
1757686694114,8.118738,-9.799467,6.2752028,-0.014660766,0.10751228,-0.12705997
1757686694133,8.350976,-8.808268,6.1195793,-0.014660766,0.10751228,-0.12705997
1757686694134,8.350976,-8.808268,6.1195793,0.20769419,0.06841691,-0.172264
1757686694153,8.3390045,-8.003817,5.90889,0.20769419,0.06841691,-0.172264
1757686694154,8.3390045,-8.003817,5.90889,0.18203785,0.08674286,-0.20158553
1757686694173,8.190564,-8.276755,5.961562,0.18203785,0.08674286,-0.20158553
1757686694174,8.190564,-8.276755,5.961562,0.07574729,0.14660765,-0.18325958
1757686694193,8.147469,-8.614338,5.7867856,0.07574729,0.14660765,-0.18325958
1757686694194,8.147469,-8.614338,5.7867856,0.10262536,0.20891592,-0.12583824
1757686694213,8.192958,-8.580819,5.7245364,0.10262536,0.20891592,-0.12583824
1757686694214,8.192958,-8.580819,5.7245364,0.2968805,0.27122417,-0.07941248
1757686694232,7.795521,-8.056489,6.0285997,0.2968805,0.27122417,-0.07941248
1757686694233,7.795521,-8.056489,6.0285997,0.38362336,0.4092797,-0.04153884
1757686694253,7.7093296,-7.845799,6.133945,0.38362336,0.4092797,-0.04153884
1757686694254,7.7093296,-7.845799,6.133945,0.35063666,0.4972443,-0.008552114
1757686694273,7.48188,-7.3789296,5.9041014,0.35063666,0.4972443,-0.008552114
1757686694274,7.48188,-7.3789296,5.9041014,0.22479841,0.63407815,-0.047647487
1757686694292,6.1100025,-7.73806,5.657499,0.22479841,0.63407815,-0.047647487
1757686694294,6.1100025,-7.73806,5.657499,0.3726278,0.60231316,-0.02076942
1757686694312,6.5720835,-7.019799,5.41329,0.3726278,0.60231316,-0.02076942
1757686694314,6.5720835,-7.019799,5.41329,0.62796944,0.44715336,0.010995574
1757686694332,6.8426285,-5.4659624,5.104438,0.62796944,0.44715336,0.010995574
1757686694333,6.8426285,-5.4659624,5.104438,0.6365216,0.37751472,-0.029321533
1757686694352,6.4643445,-4.560954,4.8338933,0.6365216,0.37751472,-0.029321533
1757686694354,6.4643445,-4.560954,4.8338933,0.3005457,0.38362336,-0.0842994
1757686694373,5.7628436,-4.4699745,4.924873,0.3005457,0.38362336,-0.0842994
1757686694374,5.7628436,-4.4699745,4.924873,-0.14049901,0.39706242,-0.119729586
1757686694392,5.1523223,-5.08289,5.0661306,-0.14049901,0.39706242,-0.119729586
1757686694393,5.1523223,-5.08289,5.0661306,-0.29932398,0.35063666,-0.15027285
1757686694412,4.709395,-5.195418,4.9224787,-0.29932398,0.35063666,-0.15027285
1757686694414,4.709395,-5.195418,4.9224787,-0.27488935,0.24190263,-0.16615535
1757686694432,4.24492,-4.829105,4.297592,-0.27488935,0.24190263,-0.16615535
1757686694434,4.24492,-4.829105,4.297592,-0.11728613,0.10751228,-0.17592919
1757686694453,3.6415808,-3.5362358,3.6296098,-0.11728613,0.10751228,-0.17592919
1757686694454,3.6415808,-3.5362358,3.6296098,0.081855945,0.0061086523,-0.1685988
1757686694473,2.9735985,-3.2441432,3.301604,0.081855945,0.0061086523,-0.1685988
1757686694474,2.9735985,-3.2441432,3.301604,0.29443705,-0.0036651916,-0.11728613
1757686694493,2.4756045,-2.980781,2.858677,0.29443705,-0.0036651916,-0.11728613
1757686694494,2.4756045,-2.980781,2.858677,0.6560693,-0.0061086523,-0.062308256
1757686694512,2.27928,-2.3223755,2.042254,0.6560693,-0.0061086523,-0.062308256
1757686694514,2.27928,-2.3223755,2.042254,1.1459832,-0.009773844,-0.017104227
1757686694533,2.099715,-1.4317327,1.3551182,1.1459832,-0.009773844,-0.017104227
1757686694534,2.099715,-1.4317327,1.3551182,1.5027285,0.043982297,0.004886922
1757686694553,1.9201498,-0.4429273,0.7254431,1.5027285,0.043982297,0.004886922
1757686694554,1.9201498,-0.4429273,0.7254431,1.5259414,0.15882497,-0.0012217305
1757686694573,1.6879122,0.14844051,0.18914193,1.5259414,0.15882497,-0.0012217305
1757686694574,1.6879122,0.14844051,0.18914193,1.2779301,0.3286455,-0.042760566
1757686694593,1.6112977,-0.019153614,0.5267244,1.2779301,0.3286455,-0.042760566
1757686694594,1.6112977,-0.019153614,0.5267244,0.9578367,0.4654793,-0.004886922
1757686694612,1.99437,-0.23223756,1.6065093,0.9578367,0.4654793,-0.004886922
1757686694613,1.99437,-0.23223756,1.6065093,0.63407815,0.5717699,0.02321288
1757686694632,3.1435869,-1.70946,4.027047,0.63407815,0.5717699,0.02321288
1757686694633,3.1435869,-1.70946,4.027047,0.14660765,0.68661255,-0.059864793
1757686694652,4.0054994,-2.7269957,5.6215854,0.14660765,0.68661255,-0.059864793
1757686694653,4.0054994,-2.7269957,5.6215854,0.043982297,0.66828656,-0.14538592
1757686694673,4.987122,-3.3423057,7.3047094,0.043982297,0.66828656,-0.14538592
1757686694674,4.987122,-3.3423057,7.3047094,-0.1600467,0.548557,-0.21991149
1757686694692,5.542577,-5.0493712,8.801085,-0.1600467,0.548557,-0.21991149
1757686694693,5.542577,-5.0493712,8.801085,-0.54367006,0.20647246,-0.19058995
1757686694714,6.169858,-6.5481415,9.097966,-0.54367006,0.20647246,-0.19058995
1757686694717,6.169858,-6.5481415,9.097966,-0.64996064,-0.40683624,-0.019547688
1757686694731,6.4044895,-6.277597,8.492233,-0.64996064,-0.40683624,-0.019547688
1757686694733,6.4044895,-6.277597,8.492233,-0.3359759,-0.82833326,0.059864793
1757686694752,6.2823853,-4.8961425,8.001422,-0.3359759,-0.82833326,0.059864793
1757686694753,6.2823853,-4.8961425,8.001422,-0.112399206,-0.829555,0.06719518
1757686694771,6.045359,-4.39336,7.311892,-0.112399206,-0.829555,0.06719518
1757686694773,6.045359,-4.39336,7.311892,0.062308256,-0.59864795,0.08674286
1757686694792,5.81791,-3.9983168,6.5457473,0.062308256,-0.59864795,0.08674286
1757686694793,5.81791,-3.9983168,6.5457473,0.22479841,-0.2919936,0.12583824
1757686694812,5.3582234,-3.1914709,6.143522,0.22479841,-0.2919936,0.12583824
1757686694813,5.3582234,-3.1914709,6.143522,0.4728097,0.042760566,0.21013765
1757686694832,5.195418,-3.064578,5.935226,0.4728097,0.042760566,0.21013765
1757686694833,5.195418,-3.064578,5.935226,0.47403142,0.1441642,0.25045475
1757686694852,5.317522,-3.3758245,5.777209,0.47403142,0.1441642,0.25045475
1757686694853,5.317522,-3.3758245,5.777209,0.29932398,0.17715092,0.21991149
1757686694872,5.482722,-3.4739866,5.755661,0.29932398,0.17715092,0.21991149
1757686694873,5.482722,-3.4739866,5.755661,0.040317107,0.15149458,0.12950343
1757686694892,5.351041,-3.5098996,5.8705826,0.040317107,0.15149458,0.12950343
1757686694893,5.351041,-3.5098996,5.8705826,-0.2773328,0.10140363,0.042760566
1757686694913,5.291186,-3.7421372,6.1123967,-0.2773328,0.10140363,0.042760566
1757686694914,5.291186,-3.7421372,6.1123967,-0.5815437,0.028099801,-0.010995574
1757686694931,5.121197,-4.2521024,6.2943563,-0.5815437,0.028099801,-0.010995574
1757686694933,5.121197,-4.2521024,6.2943563,-0.7330383,-0.064751714,-0.037873644
1757686694952,5.159505,-4.4723687,6.3063273,-0.7330383,-0.064751714,-0.037873644
1757686694953,5.159505,-4.4723687,6.3063273,-0.7538077,-0.17837265,-0.06352998
1757686694972,5.3486466,-4.2042184,6.203377,-0.7538077,-0.17837265,-0.06352998
1757686694973,5.3486466,-4.2042184,6.203377,-0.7257079,-0.30909783,-0.058643065
1757686694992,5.221754,-4.000711,5.872977,-0.7257079,-0.30909783,-0.058643065
1757686694993,5.221754,-4.000711,5.872977,-0.7171558,-0.4447099,-0.018325957
1757686695012,4.9344497,-3.9264908,5.48751,-0.7171558,-0.4447099,-0.018325957
1757686695014,4.9344497,-3.9264908,5.48751,-0.6401868,-0.4728097,0.009773844
1757686695032,4.7070007,-3.8163576,5.2145715,-0.6401868,-0.4728097,0.009773844
1757686695033,4.7070007,-3.8163576,5.2145715,-0.5314528,-0.4654793,0.035430185
1757686695052,4.5992613,-3.5410242,4.8123455,-0.5314528,-0.4654793,0.035430185
1757686695054,4.5992613,-3.5410242,4.8123455,-0.453262,-0.48258355,0.032986723
1757686695072,4.285621,-3.3782187,4.225766,-0.453262,-0.48258355,0.032986723
1757686695074,4.285621,-3.3782187,4.225766,-0.4129449,-0.5326745,0.02321288
1757686695093,3.8546648,-2.942474,3.526659,-0.4129449,-0.5326745,0.02321288
1757686695094,3.8546648,-2.942474,3.526659,-0.3555236,-0.6096435,0.035430185
1757686695113,3.4093432,-2.6719291,3.0238767,-0.3555236,-0.6096435,0.035430185
1757686695114,3.4093432,-2.6719291,3.0238767,-0.30176744,-0.6243043,0.04642576
1757686695131,3.0238767,-2.885013,2.4947581,-0.30176744,-0.6243043,0.04642576
1757686695133,3.0238767,-2.885013,2.4947581,-0.105068825,-0.5693264,0.07819075
1757686695148,3.0023289,-2.8323407,1.9153614,-0.105068825,-0.5693264,0.07819075
1757686695149,3.0023289,-2.8323407,1.9153614,0.36041048,-0.4361578,0.10629055
1757686695169,3.4045548,-2.669535,1.8291701,0.36041048,-0.4361578,0.10629055
1757686695170,3.4045548,-2.669535,1.8291701,0.52412236,-0.33841935,0.05375614
1757686695191,3.7588966,-2.1332338,1.9847932,0.52412236,-0.33841935,0.05375614
1757686695192,3.7588966,-2.1332338,1.9847932,0.37995818,-0.23945917,-0.028099801
1757686695213,4.1539397,-2.183512,2.4420857,0.37995818,-0.23945917,-0.028099801
1757686695214,4.1539397,-2.183512,2.4420857,-0.015882496,-0.19547687,-0.039095376
1757686695233,4.7644615,-3.2848446,3.2489316,-0.015882496,-0.19547687,-0.039095376
1757686695234,4.7644615,-3.2848446,3.2489316,-0.48991394,-0.2687807,0.013439035
1757686695253,5.183447,-4.012682,3.8235402,-0.48991394,-0.2687807,0.013439035
1757686695254,5.183447,-4.012682,3.8235402,-0.7965683,-0.35918877,0.029321533
1757686695273,5.1571107,-4.4460325,4.3287168,-0.7965683,-0.35918877,0.029321533
1757686695275,5.1571107,-4.4460325,4.3287168,-0.7098254,-0.39095375,0.009773844
1757686695293,5.3965306,-4.5154643,4.5178585,-0.7098254,-0.39095375,0.009773844
1757686695294,5.3965306,-4.5154643,4.5178585,-0.63041294,-0.41172317,-0.02565634
1757686695314,6.1123967,-5.1547165,4.853047,-0.63041294,-0.41172317,-0.02565634
1757686695315,6.1123967,-5.1547165,4.853047,-0.70005155,-0.41050145,-0.02443461
1757686695333,7.398083,-6.469133,5.374983,-0.70005155,-0.41050145,-0.02443461
1757686695334,7.398083,-6.469133,5.374983,-0.59498274,-0.35063666,0.021991149
1757686695353,7.4842744,-6.859388,5.317522,-0.59498274,-0.35063666,0.021991149
1757686695355,7.4842744,-6.859388,5.317522,-0.3811799,-0.28344148,0.065973446
1757686695373,7.297527,-6.7684083,5.377377,-0.3811799,-0.28344148,0.065973446
1757686695375,7.297527,-6.7684083,5.377377,-0.21624629,-0.2846632,0.1282817
1757686695393,7.1586633,-7.0221934,5.556942,-0.21624629,-0.2846632,0.1282817
1757686695395,7.1586633,-7.0221934,5.556942,-0.172264,-0.32253686,0.18203785
1757686695412,7.4004774,-6.9240313,5.509058,-0.172264,-0.32253686,0.18203785
1757686695414,7.4004774,-6.9240313,5.509058,-0.19181168,-0.3200934,0.14782938
1757686695433,7.6231384,-7.2233067,5.1571107,-0.19181168,-0.3200934,0.14782938
1757686695434,7.6231384,-7.2233067,5.1571107,-0.21013765,-0.31398472,0.112399206
1757686695454,8.176199,-7.615956,4.96318,-0.21013765,-0.31398472,0.112399206
1757686695455,8.176199,-7.615956,4.96318,-0.19303341,-0.33964106,0.13439035
1757686695473,8.374918,-7.8146744,4.9559975,-0.19303341,-0.33964106,0.13439035
1757686695475,8.374918,-7.8146744,4.9559975,-0.14538592,-0.29443705,0.18570304
1757686695493,8.396465,-7.9391727,5.0421886,-0.14538592,-0.29443705,0.18570304
1757686695495,8.396465,-7.9391727,5.0421886,-0.118507855,-0.18448131,0.17715092
1757686695514,8.046912,-7.491457,5.233725,-0.118507855,-0.18448131,0.17715092
1757686695515,8.046912,-7.491457,5.233725,-0.15271631,0.030543262,0.07086037
1757686695533,8.09719,-7.714118,5.341464,-0.15271631,0.030543262,0.07086037
1757686695534,8.09719,-7.714118,5.341464,-0.17348573,0.10995574,0.0061086523
1757686695553,8.714894,-7.788338,5.4300494,-0.17348573,0.10995574,0.0061086523
1757686695554,8.714894,-7.788338,5.4300494,-0.17959438,0.14294247,-0.030543262
1757686695573,9.208099,-8.274361,5.657499,-0.17959438,0.14294247,-0.030543262
1757686695574,9.208099,-8.274361,5.657499,-0.28955013,0.1441642,-0.02687807
1757686695593,9.222465,-9.062054,5.7867856,-0.28955013,0.1441642,-0.02687807
1757686695595,9.222465,-9.062054,5.7867856,-0.36163223,0.13439035,-0.0012217305
1757686695612,9.021352,-9.5385,5.746084,-0.36163223,0.13439035,-0.0012217305
1757686695614,9.021352,-9.5385,5.746084,-0.33108896,0.08674286,-0.002443461
1757686695633,9.074024,-9.878476,5.770026,-0.33108896,0.08674286,-0.002443461
1757686695634,9.074024,-9.878476,5.770026,-0.24190263,0.043982297,-0.032986723
1757686695653,9.617508,-10.613496,5.7963624,-0.24190263,0.043982297,-0.032986723
1757686695655,9.617508,-10.613496,5.7963624,-0.081855945,0.02076942,-0.04886922
1757686695673,10.189722,-9.368511,5.971139,-0.081855945,0.02076942,-0.04886922
1757686695674,10.189722,-9.368511,5.971139,0.20769419,-0.02565634,-0.08552113
1757686695693,9.722853,-8.714894,6.291962,0.20769419,-0.02565634,-0.08552113
1757686695695,9.722853,-8.714894,6.291962,0.0,-0.095294975,-0.09040806
1757686695713,9.43076,-9.854534,5.959168,0.0,-0.095294975,-0.09040806
1757686695715,9.43076,-9.854534,5.959168,-0.51923543,-0.2125811,-0.07819075
1757686695733,9.622296,-11.489774,5.509058,-0.51923543,-0.2125811,-0.07819075
1757686695734,9.622296,-11.489774,5.509058,-0.6914995,-0.27000242,-0.14172074
1757686695753,9.679757,-11.523293,5.6215854,-0.6914995,-0.27000242,-0.14172074
1757686695754,9.679757,-11.523293,5.6215854,-0.37751472,-0.24312437,-0.22357668
1757686695774,9.277532,-10.105926,5.4803276,-0.37751472,-0.24312437,-0.22357668
1757686695775,9.277532,-10.105926,5.4803276,0.0061086523,-0.12950343,-0.2968805
1757686695793,9.129091,-8.607155,5.2863975,0.0061086523,-0.12950343,-0.2968805
1757686695795,9.129091,-8.607155,5.2863975,0.1881465,-0.052534413,-0.25534168
1757686695814,9.198523,-8.523358,5.116409,0.1881465,-0.052534413,-0.25534168
1757686695816,9.198523,-8.523358,5.116409,0.2565634,-0.0061086523,-0.15271631
1757686695834,9.423578,-8.762778,4.915296,0.2565634,-0.0061086523,-0.15271631
1757686695835,9.423578,-8.762778,4.915296,0.24801129,-0.030543262,-0.028099801
1757686695853,9.7084875,-9.904813,4.7189717,0.24801129,-0.030543262,-0.028099801
1757686695854,9.7084875,-9.904813,4.7189717,0.30176744,-0.112399206,0.04520403
1757686695874,9.78989,-9.560047,4.6830587,0.30176744,-0.112399206,0.04520403
1757686695875,9.78989,-9.560047,4.6830587,0.45448375,-0.13316862,0.032986723
1757686695893,9.540894,-8.571242,4.661511,0.45448375,-0.13316862,0.032986723
1757686695895,9.540894,-8.571242,4.661511,0.48747048,-0.06719518,-0.002443461
1757686695914,9.069236,-8.080431,4.7022123,0.48747048,-0.06719518,-0.002443461
1757686695915,9.069236,-8.080431,4.7022123,0.43860126,0.02565634,-0.02076942
1757686695933,8.985439,-7.4986396,4.560954,0.43860126,0.02565634,-0.02076942
1757686695935,8.985439,-7.4986396,4.560954,0.3640757,0.042760566,-0.008552114
1757686695952,8.839393,-7.252037,4.450821,0.3640757,0.042760566,-0.008552114
1757686695954,8.839393,-7.252037,4.450821,0.24556783,0.05009095,0.015882496
1757686695973,8.779537,-7.350199,4.3023806,0.24556783,0.05009095,0.015882496
1757686695974,8.779537,-7.350199,4.3023806,0.16615535,0.0842994,0.03176499
1757686695993,8.614338,-7.0221934,4.51307,0.16615535,0.0842994,0.03176499
1757686695995,8.614338,-7.0221934,4.51307,0.057421334,0.17592919,0.034208454
1757686696013,8.300697,-6.943185,4.865018,0.057421334,0.17592919,0.034208454
1757686696014,8.300697,-6.943185,4.865018,0.019547688,0.29443705,0.052534413
1757686696033,7.7572136,-6.847417,5.0302176,0.019547688,0.29443705,0.052534413
1757686696034,7.7572136,-6.847417,5.0302176,0.11362094,0.30298916,0.042760566
1757686696052,7.5465236,-6.203377,4.757279,0.11362094,0.30298916,0.042760566
1757686696054,7.5465236,-6.203377,4.757279,0.2565634,0.28344148,0.015882496
1757686696073,7.1275387,-5.5138464,4.6471453,0.2565634,0.28344148,0.015882496
1757686696074,7.1275387,-5.5138464,4.6471453,0.27122417,0.2968805,-0.014660766
1757686696093,6.2991447,-5.058948,4.355053,0.27122417,0.2968805,-0.014660766
1757686696094,6.2991447,-5.058948,4.355053,0.28955013,0.34574974,-0.02687807
1757686696113,5.5617304,-4.6662993,4.158728,0.28955013,0.34574974,-0.02687807
1757686696115,5.5617304,-4.6662993,4.158728,0.35918877,0.35308012,-0.018325957
1757686696132,4.972757,-4.0701427,3.5434184,0.35918877,0.35308012,-0.018325957
1757686696133,4.972757,-4.0701427,3.5434184,0.49602258,0.32375857,-0.019547688
1757686696153,4.4436383,-3.4811692,3.083732,0.49602258,0.32375857,-0.019547688
1757686696155,4.4436383,-3.4811692,3.083732,0.5766568,0.2687807,-0.0036651916
1757686696173,3.9384618,-3.0454245,2.3942018,0.5766568,0.2687807,-0.0036651916
1757686696174,3.9384618,-3.0454245,2.3942018,0.6414085,0.23579398,0.017104227
1757686696190,3.3039982,-2.6767175,2.066196,0.6414085,0.23579398,0.017104227
1757686696191,3.3039982,-2.6767175,2.066196,0.7012733,0.22357668,0.05497787
1757686696210,2.432509,-2.480393,1.3575124,0.7012733,0.22357668,0.05497787
1757686696211,2.432509,-2.480393,1.3575124,0.8258898,0.24312437,0.1001819
1757686696231,1.8770541,-2.1523874,1.1444284,0.8258898,0.24312437,0.1001819
1757686696231,1.8770541,-2.1523874,1.1444284,1.001819,0.28710666,0.1001819
1757686696252,1.70946,-1.7429788,0.8834604,1.001819,0.28710666,0.1001819
1757686696253,1.70946,-1.7429788,0.8834604,1.2009611,0.31398472,0.08552113
1757686696272,1.6017209,-0.8571242,1.1204864,1.2009611,0.31398472,0.08552113
1757686696273,1.6017209,-0.8571242,1.1204864,1.2583824,0.40683624,0.07452556
1757686696293,1.5705963,-0.40222588,1.2761095,1.2583824,0.40683624,0.07452556
1757686696294,1.5705963,-0.40222588,1.2761095,1.1337659,0.5119051,0.05131268
1757686696313,2.1284454,-0.61770403,1.745373,1.1337659,0.5119051,0.05131268
1757686696314,2.1284454,-0.61770403,1.745373,0.8344419,0.5656612,0.04642576
1757686696333,2.956839,-1.4030021,2.6791117,0.8344419,0.5656612,0.04642576
1757686696334,2.956839,-1.4030021,2.6791117,0.47403142,0.63285637,0.018325957
1757686696352,3.3997664,-2.3343468,3.6128504,0.47403142,0.63285637,0.018325957
1757686696354,3.3997664,-2.3343468,3.6128504,0.28588495,0.7098254,-0.064751714
1757686696372,4.036624,-2.6288335,4.7860093,0.28588495,0.7098254,-0.064751714
1757686696374,4.036624,-2.6288335,4.7860093,0.15882497,0.68539083,-0.11484267
1757686696391,6.0525417,-3.229778,7.0940194,0.15882497,0.68539083,-0.11484267
1757686696393,6.0525417,-3.229778,7.0940194,-0.2443461,0.5497787,-0.12461651
1757686696411,7.2209125,-3.7253778,8.3821,-0.2443461,0.5497787,-0.12461651
1757686696413,7.2209125,-3.7253778,8.3821,-0.766025,0.3042109,-0.062308256
1757686696431,7.7811556,-4.6806645,8.542512,-0.766025,0.3042109,-0.062308256
1757686696433,7.7811556,-4.6806645,8.542512,-1.5577064,-0.19792034,0.040317107
1757686696454,6.7492547,-6.9168487,7.8649526,-1.5577064,-0.19792034,0.040317107
1757686696456,6.7492547,-6.9168487,7.8649526,-2.1001546,-0.4373795,0.012217305
1757686696472,5.619191,-8.248025,6.8522053,-2.1001546,-0.4373795,0.012217305
1757686696473,5.619191,-8.248025,6.8522053,-1.6395624,-0.3726278,-0.034208454
1757686696492,5.386954,-7.2664022,6.078878,-1.6395624,-0.3726278,-0.034208454
1757686696494,5.386954,-7.2664022,6.078878,-0.5705481,-0.21013765,-0.010995574
1757686696512,5.4779334,-5.4563856,5.499481,-0.5705481,-0.21013765,-0.010995574
1757686696514,5.4779334,-5.4563856,5.499481,0.33353242,0.039095376,-0.02565634
1757686696532,5.6120086,-3.4644098,5.3462524,0.33353242,0.039095376,-0.02565634
1757686696534,5.6120086,-3.4644098,5.3462524,0.86254174,0.24190263,0.013439035
1757686696552,5.645528,-2.753332,5.197812,0.86254174,0.24190263,0.013439035
1757686696553,5.645528,-2.753332,5.197812,0.8173377,0.36651915,0.087964594
1757686696571,6.133945,-3.8594532,5.159505,0.8173377,0.36651915,0.087964594
1757686696573,6.133945,-3.8594532,5.159505,0.09896017,0.34330627,0.12217305
1757686696592,6.1650696,-4.7524905,5.4683566,0.09896017,0.34330627,0.12217305
1757686696594,6.1650696,-4.7524905,5.4683566,-0.2602286,0.29443705,0.11362094
1757686696612,5.825093,-5.2887917,5.556942,-0.2602286,0.29443705,0.11362094
1757686696614,5.825093,-5.2887917,5.556942,-0.47769663,0.24312437,0.019547688
1757686696632,5.4204726,-5.403713,5.449203,-0.47769663,0.24312437,0.019547688
1757686696633,5.4204726,-5.403713,5.449203,-0.49235737,0.16126843,-0.095294975
1757686696652,5.379771,-4.912902,5.3725886,-0.49235737,0.16126843,-0.095294975
1757686696655,5.379771,-4.912902,5.3725886,-0.44593164,0.058643065,-0.1881465
1757686696670,5.159505,-4.1922474,5.391742,-0.44593164,0.058643065,-0.1881465
1757686696671,5.159505,-4.1922474,5.391742,-0.52534413,0.0012217305,-0.27000242
1757686696691,4.9176903,-3.8786068,5.4180784,-0.52534413,0.0012217305,-0.27000242
1757686696693,4.9176903,-3.8786068,5.4180784,-0.6743952,-0.058643065,-0.28588495
1757686696713,4.7189717,-3.763685,5.3247046,-0.6743952,-0.058643065,-0.28588495
1757686696714,4.7189717,-3.763685,5.3247046,-0.766025,-0.15149458,-0.23457226
1757686696731,4.6255975,-4.220978,5.020641,-0.766025,-0.15149458,-0.23457226
1757686696733,4.6255975,-4.220978,5.020641,-0.77457714,-0.26511553,-0.16493362
1757686696750,4.4915223,-4.2664676,4.5178585,-0.77457714,-0.26511553,-0.16493362
1757686696752,4.4915223,-4.2664676,4.5178585,-0.625526,-0.4092797,-0.105068825
1757686696771,4.3143516,-3.3638535,4.4675803,-0.625526,-0.4092797,-0.105068825
1757686696773,4.3143516,-3.3638535,4.4675803,-0.6169739,-0.45570546,-0.10995574
1757686696791,4.0940847,-2.992752,3.9743748,-0.6169739,-0.45570546,-0.10995574
1757686696793,4.0940847,-2.992752,3.9743748,-0.7464773,-0.49113566,-0.081855945
1757686696812,4.0294414,-2.9975405,3.3758245,-0.7464773,-0.49113566,-0.081855945
1757686696814,4.0294414,-2.9975405,3.3758245,-0.7965683,-0.5693264,0.02076942
1757686696831,3.904943,-3.0119057,2.7461493,-0.7965683,-0.5693264,0.02076942
1757686696833,3.904943,-3.0119057,2.7461493,-0.8014552,-0.6426302,0.14782938
1757686696851,3.3758245,-3.6176388,2.4492683,-0.8014552,-0.6426302,0.14782938
1757686696853,3.3758245,-3.6176388,2.4492683,-0.7819075,-0.59131753,0.22235495
1757686696871,2.9352913,-3.6774938,2.5258827,-0.7819075,-0.59131753,0.22235495
1757686696872,2.9352913,-3.6774938,2.5258827,-0.5363397,-0.47525316,0.2724459
1757686696891,2.8754363,-3.8283286,2.4349031,-0.5363397,-0.47525316,0.2724459
1757686696893,2.8754363,-3.8283286,2.4349031,-0.14538592,-0.2968805,0.2321288
1757686696912,3.371036,-3.4835634,2.1930888,-0.14538592,-0.2968805,0.2321288
1757686696914,3.371036,-3.4835634,2.1930888,0.080634214,-0.1282817,0.119729586
1757686696931,4.8482585,-3.454833,2.2768857,0.080634214,-0.1282817,0.119729586
1757686696933,4.8482585,-3.454833,2.2768857,0.07086037,0.052534413,0.09896017
1757686696951,5.1259856,-4.367024,2.681506,0.07086037,0.052534413,0.09896017
1757686696953,5.1259856,-4.367024,2.681506,-0.13805555,0.18203785,0.10140363
1757686696970,4.7500963,-5.1666875,2.9592333,-0.13805555,0.18203785,0.10140363
1757686696972,4.7500963,-5.1666875,2.9592333,-0.25411993,0.2846632,0.02076942
1757686696991,4.5561657,-5.4444146,3.5529952,-0.25411993,0.2846632,0.02076942
1757686696993,4.5561657,-5.4444146,3.5529952,-0.19425514,0.28710666,-0.064751714
1757686697011,4.960786,-5.159505,4.0653543,-0.19425514,0.28710666,-0.064751714
1757686697013,4.960786,-5.159505,4.0653543,-0.13561209,0.20769419,-0.11362094
1757686697031,5.5258174,-5.770026,4.3119574,-0.13561209,0.20769419,-0.11362094
1757686697033,5.5258174,-5.770026,4.3119574,-0.20525073,0.103847094,-0.081855945
1757686697051,6.0645127,-6.7324953,4.4196963,-0.20525073,0.103847094,-0.081855945
1757686697052,6.0645127,-6.7324953,4.4196963,-0.204029,0.042760566,-0.04642576
1757686697070,6.4523735,-6.8689647,4.4340615,-0.204029,0.042760566,-0.04642576
1757686697072,6.4523735,-6.8689647,4.4340615,-0.064751714,-0.014660766,-0.013439035
1757686697091,6.2225304,-6.670246,4.7070007,-0.064751714,-0.014660766,-0.013439035
1757686697093,6.2225304,-6.670246,4.7070007,0.1001819,-0.057421334,-0.0061086523
1757686697111,6.5984197,-6.145916,4.817134,0.1001819,-0.057421334,-0.0061086523
1757686697113,6.5984197,-6.145916,4.817134,0.19547687,-0.118507855,-0.043982297
1757686697130,7.1826053,-6.1507044,4.8362875,0.19547687,-0.118507855,-0.043982297
1757686697132,7.1826053,-6.1507044,4.8362875,0.17592919,-0.13927728,-0.04153884
1757686697150,7.4627266,-6.7564373,4.9416323,0.17592919,-0.13927728,-0.04153884
1757686697152,7.4627266,-6.7564373,4.9416323,0.04642576,-0.17837265,-0.009773844
1757686697169,7.5584946,-7.9224133,4.8817773,0.04642576,-0.17837265,-0.009773844
1757686697170,7.5584946,-7.9224133,4.8817773,-0.10629055,-0.21135938,-0.02687807
1757686697188,7.762002,-8.384495,4.972757,-0.10629055,-0.21135938,-0.02687807
1757686697189,7.762002,-8.384495,4.972757,-0.172264,-0.2406809,-0.06963864
1757686697208,7.5584946,-8.916007,5.044583,-0.172264,-0.2406809,-0.06963864
1757686697210,7.5584946,-8.916007,5.044583,-0.17592919,-0.20647246,-0.111177474
1757686697227,7.855376,-8.968679,5.0134583,-0.17592919,-0.20647246,-0.111177474
1757686697228,7.855376,-8.968679,5.0134583,-0.15149458,-0.21624629,-0.08552113
1757686697250,9.085996,-8.743625,5.0613422,-0.15149458,-0.21624629,-0.08552113
1757686697251,9.085996,-8.743625,5.0613422,-0.12339478,-0.28344148,-0.009773844
1757686697268,10.036493,-8.844181,5.530606,-0.12339478,-0.28344148,-0.009773844
1757686697269,10.036493,-8.844181,5.530606,-0.18570304,-0.30665436,0.02443461
1757686697289,8.748413,-9.449914,6.157887,-0.18570304,-0.30665436,0.02443461
1757686697290,8.748413,-9.449914,6.157887,-0.13439035,-0.13072516,-0.05375614
1757686697310,8.707711,-9.454702,6.1004257,-0.13439035,-0.13072516,-0.05375614
1757686697312,8.707711,-9.454702,6.1004257,-0.021991149,-0.16493362,-0.065973446
1757686697330,9.665392,-9.68694,5.8825536,-0.021991149,-0.16493362,-0.065973446
1757686697332,9.665392,-9.68694,5.8825536,-0.07086037,-0.21624629,-0.06963864
1757686697350,10.896012,-10.323798,6.069301,-0.07086037,-0.21624629,-0.06963864
1757686697352,10.896012,-10.323798,6.069301,-0.13439035,-0.21991149,-0.05131268
1757686697371,10.852917,-10.783484,6.4284315,-0.13439035,-0.21991149,-0.05131268
1757686697372,10.852917,-10.783484,6.4284315,-0.13316862,-0.13439035,-0.04886922
1757686697389,9.883265,-10.3214035,6.4020953,-0.13316862,-0.13439035,-0.04886922
1757686697390,9.883265,-10.3214035,6.4020953,-0.057421334,-0.035430185,-0.080634214
1757686697410,9.76116,-10.005369,5.9567738,-0.057421334,-0.035430185,-0.080634214
1757686697411,9.76116,-10.005369,5.9567738,0.019547688,-0.030543262,-0.07086037
1757686697430,10.409989,-9.950302,5.841852,0.019547688,-0.030543262,-0.07086037
1757686697432,10.409989,-9.950302,5.841852,0.10629055,-0.02687807,-0.037873644
1757686697450,10.9582615,-9.821015,5.896919,0.10629055,-0.02687807,-0.037873644
1757686697452,10.9582615,-9.821015,5.896919,-0.010995574,0.019547688,-0.0036651916
1757686697470,10.477027,-9.617508,5.60722,-0.010995574,0.019547688,-0.0036651916
1757686697471,10.477027,-9.617508,5.60722,-0.38240165,0.008552114,0.018325957
1757686697489,8.899248,-10.019734,5.305551,-0.38240165,0.008552114,0.018325957
1757686697491,8.899248,-10.019734,5.305551,-0.44226643,0.030543262,0.017104227
1757686697510,8.367735,-11.35091,5.0182467,-0.44226643,0.030543262,0.017104227
1757686697512,8.367735,-11.35091,5.0182467,-0.3042109,0.030543262,0.02321288
1757686697530,8.791509,-10.929531,5.0038815,-0.3042109,0.030543262,0.02321288
1757686697531,8.791509,-10.929531,5.0038815,0.172264,-0.004886922,0.061086524
1757686697550,8.963891,-8.920795,5.556942,0.172264,-0.004886922,0.061086524
1757686697552,8.963891,-8.920795,5.556942,0.42271876,0.036651913,0.02443461
1757686697570,8.446744,-8.195353,5.4563856,0.42271876,0.036651913,0.02443461
1757686697571,8.446744,-8.195353,5.4563856,0.3567453,0.09407325,0.015882496
1757686697589,8.899248,-8.008605,4.8602295,0.3567453,0.09407325,0.015882496
1757686697590,8.899248,-8.008605,4.8602295,0.28099802,0.06963864,0.065973446
1757686697611,9.3661175,-8.53054,4.51307,0.28099802,0.06963864,0.065973446
1757686697612,9.3661175,-8.53054,4.51307,0.32986724,0.17104226,0.09040806
1757686697630,8.372523,-8.298303,5.1882353,0.32986724,0.17104226,0.09040806
1757686697631,8.372523,-8.298303,5.1882353,0.5448918,0.44959682,-0.0061086523
1757686697651,7.7931266,-7.3310456,5.659893,0.5448918,0.44959682,-0.0061086523
1757686697653,7.7931266,-7.3310456,5.659893,0.52534413,0.516792,-0.07574729
1757686697669,7.642292,-6.7851677,5.631162,0.52534413,0.516792,-0.07574729
1757686697671,7.642292,-6.7851677,5.631162,0.40683624,0.50335294,-0.10873401
1757686697689,7.8146744,-6.9407907,5.2959743,0.40683624,0.50335294,-0.10873401
1757686697691,7.8146744,-6.9407907,5.2959743,0.33964106,0.45204028,-0.11484267
1757686697711,7.8984714,-7.2687964,5.209783,0.33964106,0.45204028,-0.11484267
1757686697712,7.8984714,-7.2687964,5.209783,0.2919936,0.45937067,-0.10995574
1757686697730,7.2951326,-7.350199,5.255273,0.2919936,0.45937067,-0.10995574
1757686697732,7.2951326,-7.350199,5.255273,0.34574974,0.52534413,-0.1282817
1757686697750,6.7612257,-6.7492547,5.494693,0.34574974,0.52534413,-0.1282817
1757686697752,6.7612257,-6.7492547,5.494693,0.44715336,0.5510005,-0.16249016
1757686697771,6.301539,-5.8226986,5.482722,0.44715336,0.5510005,-0.16249016
1757686697772,6.301539,-5.8226986,5.482722,0.50946164,0.52656585,-0.18448131
1757686697789,6.3206925,-4.8506527,5.6120086,0.50946164,0.52656585,-0.18448131
1757686697790,6.3206925,-4.8506527,5.6120086,0.48991394,0.47647488,-0.19303341
1757686697811,5.590461,-4.522647,5.1020436,0.48991394,0.47647488,-0.19303341
1757686697812,5.590461,-4.522647,5.1020436,0.44715336,0.45081854,-0.16737708
1757686697830,5.073313,-4.4316673,4.3981485,0.44715336,0.45081854,-0.16737708
1757686697832,5.073313,-4.4316673,4.3981485,0.4654793,0.40317106,-0.13439035
1757686697851,4.2521024,-3.7684734,3.655946,0.4654793,0.40317106,-0.13439035
1757686697853,4.2521024,-3.7684734,3.655946,0.5204572,0.41416663,-0.14294247
1757686697870,3.4691982,-2.9113493,3.1196449,0.5204572,0.41416663,-0.14294247
1757686697872,3.4691982,-2.9113493,3.1196449,0.6047566,0.43004912,-0.14172074
1757686697889,2.777274,-2.693477,2.8395233,0.6047566,0.43004912,-0.14172074
1757686697890,2.777274,-2.693477,2.8395233,0.61575216,0.45570546,-0.14172074
1757686697911,2.2864625,-2.3295584,2.5570073,0.61575216,0.45570546,-0.14172074
1757686697913,2.2864625,-2.3295584,2.5570073,0.6817256,0.46792278,-0.14905111
1757686697929,2.1380222,-2.0350714,2.3127987,0.6817256,0.46792278,-0.14905111
1757686697931,2.1380222,-2.0350714,2.3127987,0.79290307,0.43493605,-0.103847094
1757686697950,1.8507179,-1.8674773,2.1452048,0.79290307,0.43493605,-0.103847094
1757686697952,1.8507179,-1.8674773,2.1452048,0.8185594,0.38240165,-0.039095376
1757686697970,1.7980455,-1.4460979,2.1308396,0.8185594,0.38240165,-0.039095376
1757686697972,1.7980455,-1.4460979,2.1308396,0.816116,0.3408628,0.007330383
1757686697991,1.3024458,-1.5131354,2.8634653,0.816116,0.3408628,0.007330383
1757686697992,1.3024458,-1.5131354,2.8634653,0.77946407,0.45814893,0.22479841
1757686698011,1.5562311,-2.0446482,3.0238767,0.77946407,0.45814893,0.22479841
1757686698012,1.5562311,-2.0446482,3.0238767,0.68539083,0.5693264,0.31642818
1757686698030,2.8419175,-2.6647465,2.980781,0.68539083,0.5693264,0.31642818
1757686698032,2.8419175,-2.6647465,2.980781,0.79901177,0.6621779,0.37140608
1757686698050,3.739743,-3.217807,3.1723173,0.79901177,0.6621779,0.37140608
1757686698052,3.739743,-3.217807,3.1723173,1.0054842,0.8393288,0.32498032
1757686698070,3.6727054,-2.846706,4.1132383,1.0054842,0.8393288,0.32498032
1757686698072,3.6727054,-2.846706,4.1132383,1.2351695,1.0445796,0.19181168
1757686698092,4.084508,-1.946486,5.1786585,1.2351695,1.0445796,0.19181168
1757686698093,4.084508,-1.946486,5.1786585,1.174083,1.0824533,0.10629055
1757686698109,5.0397944,-1.5131354,6.5457473,1.174083,1.0824533,0.10629055
1757686698111,5.0397944,-1.5131354,6.5457473,0.49602258,0.86620694,0.04642576
1757686698130,5.3318872,-2.1930888,7.577648,0.49602258,0.86620694,0.04642576
1757686698132,5.3318872,-2.1930888,7.577648,-0.32620203,0.6792821,-0.007330383
1757686698149,4.4484267,-4.3047748,8.590396,-0.32620203,0.6792821,-0.007330383
1757686698151,4.4484267,-4.3047748,8.590396,-1.1410962,0.39584067,-0.089186326
1757686698169,4.197036,-5.9448028,8.748413,-1.1410962,0.39584067,-0.089186326
1757686698170,4.197036,-5.9448028,8.748413,-1.219287,0.15882497,-0.12461651
1757686698190,4.1156325,-6.9623384,7.991845,-1.219287,0.15882497,-0.12461651
1757686698192,4.1156325,-6.9623384,7.991845,-0.92485,0.015882496,-0.16615535
1757686698209,4.5561657,-6.4858923,7.345411,-0.92485,0.015882496,-0.16615535
1757686698211,4.5561657,-6.4858923,7.345411,-0.36041048,-0.07941248,-0.14538592
1757686698229,4.8722005,-4.972757,6.885724,-0.36041048,-0.07941248,-0.14538592
1757686698231,4.8722005,-4.972757,6.885724,0.14538592,-0.09407325,-0.05375614
1757686698250,4.7620673,-3.9959226,6.5122285,0.14538592,-0.09407325,-0.05375614
1757686698252,4.7620673,-3.9959226,6.5122285,0.4007276,-0.06719518,0.059864793
1757686698270,4.7141833,-3.0909145,6.471527,0.4007276,-0.06719518,0.059864793
1757686698272,4.7141833,-3.0909145,6.471527,0.41416663,-0.07819075,0.15515977
1757686698289,4.5920787,-2.8538885,6.6247563,0.41416663,-0.07819075,0.15515977
1757686698291,4.5920787,-2.8538885,6.6247563,0.23701571,-0.119729586,0.24923302
1757686698310,4.6232033,-3.2273839,6.8282633,0.23701571,-0.119729586,0.24923302
1757686698311,4.6232033,-3.2273839,6.8282633,-0.032986723,-0.25045475,0.27488935
1757686698331,4.735731,-3.6966474,6.775591,-0.032986723,-0.25045475,0.27488935
1757686698333,4.735731,-3.6966474,6.775591,-0.18081611,-0.3323107,0.19792034
1757686698351,4.6375685,-4.1060557,6.600814,-0.18081611,-0.3323107,0.19792034
1757686698352,4.6375685,-4.1060557,6.600814,-0.2968805,-0.36651915,0.06719518
1757686698371,4.5322237,-3.7086184,6.5864487,-0.2968805,-0.36651915,0.06719518
1757686698372,4.5322237,-3.7086184,6.5864487,-0.36163223,-0.36285394,-0.043982297
1757686698390,4.235343,-3.205836,6.5505357,-0.36163223,-0.36285394,-0.043982297
1757686698391,4.235343,-3.205836,6.5505357,-0.45081854,-0.35185838,-0.1001819
1757686698410,3.8905778,-3.1723173,6.615179,-0.45081854,-0.35185838,-0.1001819
1757686698412,3.8905778,-3.1723173,6.615179,-0.69027776,-0.36651915,-0.11728613
1757686698431,3.5793316,-3.4763808,6.679823,-0.69027776,-0.36651915,-0.11728613
1757686698432,3.5793316,-3.4763808,6.679823,-0.88453287,-0.4007276,-0.105068825
1757686698450,3.6152446,-3.6511576,6.5481415,-0.88453287,-0.4007276,-0.105068825
1757686698451,3.6152446,-3.6511576,6.5481415,-0.98715824,-0.5045747,-0.057421334
1757686698470,3.502717,-4.0462008,6.081272,-0.98715824,-0.5045747,-0.057421334
1757686698471,3.502717,-4.0462008,6.081272,-0.9578367,-0.63285637,-0.013439035
1757686698491,3.1794999,-3.157952,5.1020436,-0.9578367,-0.63285637,-0.013439035
1757686698492,3.1794999,-3.157952,5.1020436,-0.7415904,-0.7733554,0.05497787
1757686698510,3.3662477,-2.9233203,4.345476,-0.7415904,-0.7733554,0.05497787
1757686698512,3.3662477,-2.9233203,4.345476,-0.657291,-0.8002335,0.105068825
1757686698530,3.3159695,-3.1268275,3.0478187,-0.657291,-0.8002335,0.105068825
1757686698531,3.3159695,-3.1268275,3.0478187,-0.6035349,-0.73426,0.15149458
1757686698550,3.1483753,-2.9233203,2.1906946,-0.6035349,-0.73426,0.15149458
1757686698551,3.1483753,-2.9233203,2.1906946,-0.47769663,-0.61819565,0.20891592
1757686698570,2.8874073,-3.1052797,1.6687586,-0.47769663,-0.61819565,0.20891592
1757686698571,2.8874073,-3.1052797,1.6687586,-0.2846632,-0.4447099,0.2773328
1757686698590,3.0550013,-3.4332852,1.2186487,-0.2846632,-0.4447099,0.2773328
1757686698591,3.0550013,-3.4332852,1.2186487,-0.118507855,-0.30665436,0.3371976
1757686698610,3.3542767,-3.6870706,1.1947067,-0.118507855,-0.30665436,0.3371976
1757686698611,3.3542767,-3.6870706,1.1947067,0.035430185,-0.17470746,0.31764993
1757686698631,3.691859,-3.4021606,1.6448165,0.035430185,-0.17470746,0.31764993
1757686698632,3.691859,-3.4021606,1.6448165,0.16493362,-0.07452556,0.2125811
1757686698650,3.6894648,-2.5809495,2.2960393,0.16493362,-0.07452556,0.2125811
1757686698651,3.6894648,-2.5809495,2.2960393,0.040317107,0.021991149,0.073303826
1757686698670,3.5338416,-3.095703,3.857059,0.040317107,0.021991149,0.073303826
1757686698671,3.5338416,-3.095703,3.857059,-0.41172317,-0.02076942,-0.004886922
1757686698690,4.187459,-4.027047,4.8243165,-0.41172317,-0.02076942,-0.004886922
1757686698691,4.187459,-4.027047,4.8243165,-0.59620446,-0.21135938,0.042760566
1757686698709,4.709395,-4.8362875,5.118803,-0.59620446,-0.21135938,0.042760566
1757686698710,4.709395,-4.8362875,5.118803,-0.56688297,-0.36651915,0.04520403
1757686698729,5.0302176,-5.5018754,4.924873,-0.56688297,-0.36651915,0.04520403
1757686698731,5.0302176,-5.5018754,4.924873,-0.36285394,-0.41416663,-0.0061086523
1757686698750,5.2528787,-5.647922,4.9416323,-0.36285394,-0.41416663,-0.0061086523
1757686698752,5.2528787,-5.647922,4.9416323,-0.21135938,-0.37507126,-0.0842994
1757686698770,5.571307,-5.449203,5.145139,-0.21135938,-0.37507126,-0.0842994
1757686698771,5.571307,-5.449203,5.145139,-0.12950343,-0.26511553,-0.14905111
1757686698789,5.5856724,-5.913678,5.363012,-0.12950343,-0.26511553,-0.14905111
1757686698791,5.5856724,-5.913678,5.363012,-0.21624629,-0.20769419,-0.12461651
1757686698810,5.949591,-6.8641763,5.5737014,-0.21624629,-0.20769419,-0.12461651
1757686698811,5.949591,-6.8641763,5.5737014,-0.38728857,-0.26389378,-0.06841691
1757686698829,6.5864487,-7.410054,5.932832,-0.38728857,-0.26389378,-0.06841691
1757686698830,6.5864487,-7.410054,5.932832,-0.43249258,-0.3323107,0.018325957
1757686698850,6.619968,-7.824251,6.172252,-0.43249258,-0.3323107,0.018325957
1757686698851,6.619968,-7.824251,6.172252,-0.3115413,-0.25167647,0.06719518
1757686698870,7.038953,-8.219295,6.10282,-0.3115413,-0.25167647,0.06719518
1757686698871,7.038953,-8.219295,6.10282,-0.15027285,-0.2919936,0.096516706
1757686698890,7.8386164,-8.248025,6.136339,-0.15027285,-0.2919936,0.096516706
1757686698891,7.8386164,-8.248025,6.136339,0.028099801,-0.36285394,0.12339478
1757686698911,8.264784,-8.329428,6.1626754,0.028099801,-0.36285394,0.12339478
1757686698913,8.264784,-8.329428,6.1626754,0.119729586,-0.32253686,0.12461651
1757686698929,8.276755,-8.602366,6.289568,0.119729586,-0.32253686,0.12461651
1757686698931,8.276755,-8.602366,6.289568,0.02565634,-0.23335053,0.089186326
1757686698950,7.867347,-9.153033,6.0860605,0.02565634,-0.23335053,0.089186326
1757686698951,7.867347,-9.153033,6.0860605,-0.096516706,-0.19425514,0.059864793
1757686698970,7.7189064,-9.258378,6.117185,-0.096516706,-0.19425514,0.059864793
1757686698971,7.7189064,-9.258378,6.117185,-0.12095132,-0.24190263,0.052534413
1757686698990,7.6710224,-9.248801,6.184223,-0.12095132,-0.24190263,0.052534413
1757686698992,7.6710224,-9.248801,6.184223,-0.034208454,-0.26633725,0.073303826
1757686699011,8.465898,-9.179369,6.5218053,-0.034208454,-0.26633725,0.073303826
1757686699013,8.465898,-9.179369,6.5218053,0.1282817,-0.22235495,0.10873401
1757686699029,9.581595,-8.942344,6.861782,0.1282817,-0.22235495,0.10873401
1757686699030,9.581595,-8.942344,6.861782,0.0061086523,-0.13927728,0.04520403
1757686699050,9.7084875,-9.624691,6.694188,0.0061086523,-0.13927728,0.04520403
1757686699052,9.7084875,-9.624691,6.694188,-0.17837265,-0.1441642,0.04886922
1757686699070,9.730036,-10.601525,6.6247563,-0.17837265,-0.1441642,0.04886922
1757686699071,9.730036,-10.601525,6.6247563,-0.36651915,-0.16126843,0.02687807
1757686699090,10.19451,-11.540052,6.9647326,-0.36651915,-0.16126843,0.02687807
1757686699092,10.19451,-11.540052,6.9647326,-0.15393804,-0.12461651,-0.039095376
1757686699111,10.295067,-10.527305,7.5584946,-0.15393804,-0.12461651,-0.039095376
1757686699113,10.295067,-10.527305,7.5584946,0.12095132,-0.028099801,-0.172264
1757686699129,10.175357,-9.91439,7.690176,0.12095132,-0.028099801,-0.172264
1757686699131,10.175357,-9.91439,7.690176,0.26511553,-0.0036651916,-0.23945917
1757686699151,9.634268,-9.378088,7.4507556,0.26511553,-0.0036651916,-0.23945917
1757686699152,9.634268,-9.378088,7.4507556,0.13072516,-0.043982297,-0.21991149
1757686699171,9.301474,-9.85214,6.813898,0.13072516,-0.043982297,-0.21991149
1757686699173,9.301474,-9.85214,6.813898,-0.1160644,-0.03176499,-0.18081611
1757686699189,9.866506,-11.039664,6.495469,-0.1160644,-0.03176499,-0.18081611
1757686699191,9.866506,-11.039664,6.495469,-0.017104227,0.057421334,-0.10140363
1757686699210,9.519346,-10.108319,6.691794,-0.017104227,0.057421334,-0.10140363
1757686699211,9.519346,-10.108319,6.691794,0.38362336,0.14049901,-0.09896017
1757686699230,9.157822,-8.858546,6.612785,0.38362336,0.14049901,-0.09896017
1757686699231,9.157822,-8.858546,6.612785,0.6072,0.19425514,-0.12217305
1757686699250,9.0237465,-8.4587145,6.3063273,0.6072,0.19425514,-0.12217305
1757686699252,9.0237465,-8.4587145,6.3063273,0.5681047,0.23579398,-0.11484267
1757686699271,9.021352,-8.255207,6.1890116,0.5681047,0.23579398,-0.11484267
1757686699272,9.021352,-8.255207,6.1890116,0.43493605,0.29565877,-0.089186326
1757686699291,8.5473,-8.59279,6.3422403,0.43493605,0.29565877,-0.089186326
1757686699293,8.5473,-8.59279,6.3422403,0.2932153,0.3848451,-0.087964594
1757686699311,8.195353,-9.081207,6.5505357,0.2932153,0.3848451,-0.087964594
1757686699313,8.195353,-9.081207,6.5505357,0.24923302,0.41416663,-0.096516706
1757686699330,8.013393,-8.63828,6.5122285,0.24923302,0.41416663,-0.096516706
1757686699331,8.013393,-8.63828,6.5122285,0.32742378,0.37995818,-0.13194689
1757686699350,7.726089,-7.228095,6.229713,0.32742378,0.37995818,-0.13194689
1757686699352,7.726089,-7.228095,6.229713,0.38240165,0.34574974,-0.14538592
1757686699371,7.678205,-7.2664022,6.143522,0.38240165,0.34574974,-0.14538592
1757686699373,7.678205,-7.2664022,6.143522,0.30298916,0.33841935,-0.11362094
1757686699391,7.1634517,-7.347805,6.10282,0.30298916,0.33841935,-0.11362094
1757686699393,7.1634517,-7.347805,6.10282,0.32375857,0.34697145,-0.081855945
1757686699411,6.4978633,-6.6989765,6.033388,0.32375857,0.34697145,-0.081855945
1757686699413,6.4978633,-6.6989765,6.033388,0.4373795,0.35918877,-0.0720821
1757686699430,5.853823,-5.911284,5.57849,0.4373795,0.35918877,-0.0720821
1757686699432,5.853823,-5.911284,5.57849,0.52778757,0.3371976,-0.04642576
1757686699451,5.4300494,-5.1930237,5.1786585,0.52778757,0.3371976,-0.04642576
1757686699452,5.4300494,-5.1930237,5.1786585,0.5742133,0.29565877,-0.032986723
1757686699471,5.243302,-4.630386,5.0996494,0.5742133,0.29565877,-0.032986723
1757686699473,5.243302,-4.630386,5.0996494,0.53878313,0.29443705,-0.008552114
1757686699490,5.3438582,-4.3742065,5.2863975,0.53878313,0.29443705,-0.008552114
1757686699492,5.3438582,-4.3742065,5.2863975,0.4361578,0.27977628,0.02565634
1757686699512,5.3438582,-4.5896845,5.3821654,0.4361578,0.27977628,0.02565634
1757686699513,5.3438582,-4.5896845,5.3821654,0.16982053,0.23457226,0.07941248
1757686699531,5.571307,-5.106832,5.7029886,0.16982053,0.23457226,0.07941248
1757686699532,5.571307,-5.106832,5.7029886,0.073303826,0.1685988,0.07941248
1757686699551,5.729325,-5.0038815,5.731719,0.073303826,0.1685988,0.07941248
1757686699553,5.729325,-5.0038815,5.731719,0.034208454,0.105068825,0.036651913
1757686699570,5.628768,-4.757279,5.542577,0.034208454,0.105068825,0.036651913
1757686699572,5.628768,-4.757279,5.542577,0.081855945,0.052534413,-0.02321288
1757686699591,5.185841,-4.0821137,5.3582234,0.081855945,0.052534413,-0.02321288
1757686699593,5.185841,-4.0821137,5.3582234,0.17959438,0.04153884,-0.08307768
1757686699611,4.759673,-3.3159695,5.0158525,0.17959438,0.04153884,-0.08307768
1757686699613,4.759673,-3.3159695,5.0158525,0.21502456,0.080634214,-0.10140363
1757686699628,4.390966,-2.9951463,5.0613422,0.21502456,0.080634214,-0.10140363
1757686699629,4.390966,-2.9951463,5.0613422,0.18081611,0.18203785,-0.10262536
1757686699649,3.7493198,-3.040636,4.76925,0.18081611,0.18203785,-0.10262536
1757686699649,3.7493198,-3.040636,4.76925,0.22602014,0.30787608,-0.10629055
1757686699668,2.9472623,-3.1675289,4.10845,0.22602014,0.30787608,-0.10629055
1757686699669,2.9472623,-3.1675289,4.10845,0.35430184,0.36163223,-0.103847094
1757686699689,2.243367,-2.7940333,2.8682537,0.35430184,0.36163223,-0.103847094
1757686699690,2.243367,-2.7940333,2.8682537,0.5693264,0.41050145,-0.04153884
1757686699711,1.721431,-2.4109612,2.231396,0.5693264,0.41050145,-0.04153884
1757686699712,1.721431,-2.4109612,2.231396,0.75747293,0.50823987,-0.0012217305
1757686699730,1.4867992,-2.0733786,1.7190368,0.75747293,0.50823987,-0.0012217305
1757686699731,1.4867992,-2.0733786,1.7190368,0.9773844,0.60231316,0.06352998
1757686699751,1.388637,-1.6352397,1.4891934,0.9773844,0.60231316,0.06352998
1757686699753,1.388637,-1.6352397,1.4891934,1.1508701,0.7049385,0.07086037
1757686699770,1.2378023,-1.2234371,1.541866,1.1508701,0.7049385,0.07086037
1757686699772,1.2378023,-1.2234371,1.541866,1.1838568,0.8002335,0.004886922
1757686699792,1.4820108,-0.7254431,1.9991584,1.1838568,0.8002335,0.004886922
1757686699794,1.4820108,-0.7254431,1.9991584,0.93462384,0.8173377,-0.036651913
1757686699811,2.5594015,-0.91937345,2.954445,0.93462384,0.8173377,-0.036651913
1757686699813,2.5594015,-0.91937345,2.954445,0.43371433,0.7892379,-0.056199603
1757686699833,3.1364043,-1.958457,4.072537,0.43371433,0.7892379,-0.056199603
1757686699834,3.1364043,-1.958457,4.072537,-0.02687807,0.7415904,-0.10140363
1757686699851,2.885013,-2.7964275,4.7189717,-0.02687807,0.7415904,-0.10140363
1757686699853,2.885013,-2.7964275,4.7189717,-0.2724459,0.6609562,-0.14660765
1757686699870,2.56419,-1.9033904,7.565677,-0.2724459,0.6609562,-0.14660765
1757686699872,2.56419,-1.9033904,7.565677,-0.4728097,0.20769419,0.0036651916
1757686699892,3.7301662,-2.7341783,9.212888,-0.4728097,0.20769419,0.0036651916
1757686699894,3.7301662,-2.7341783,9.212888,-1.0531317,-0.22724187,0.1160644
1757686699912,5.9400144,-5.195418,9.258378,-1.0531317,-0.22724187,0.1160644
1757686699914,5.9400144,-5.195418,9.258378,-1.7018706,-0.7293731,0.20158553
1757686699932,7.240066,-8.161834,8.6095495,-1.7018706,-0.7293731,0.20158553
1757686699933,7.240066,-8.161834,8.6095495,-1.6639969,-0.87964594,0.2125811
1757686699951,6.885724,-8.90643,8.101978,-1.6639969,-0.87964594,0.2125811
1757686699953,6.885724,-8.90643,8.101978,-0.9944886,-0.6743952,0.17959438
1757686699972,5.8442464,-7.819463,7.750031,-0.9944886,-0.6743952,0.17959438
1757686699973,5.8442464,-7.819463,7.750031,-0.17715092,-0.3481932,0.119729586
1757686699991,5.0876784,-5.8322754,6.909666,-0.17715092,-0.3481932,0.119729586
1757686699993,5.0876784,-5.8322754,6.909666,0.4654793,-0.029321533,0.017104227
1757686700013,4.570531,-3.8067808,6.4882865,0.4654793,-0.029321533,0.017104227
1757686700014,4.570531,-3.8067808,6.4882865,0.8063421,0.16371189,0.0012217305
1757686700032,4.721366,-2.7102363,6.0764837,0.8063421,0.16371189,0.0012217305
1757686700034,4.721366,-2.7102363,6.0764837,0.43860126,0.10995574,0.089186326
1757686700051,4.996699,-3.0813377,6.0046577,0.43860126,0.10995574,0.089186326
1757686700053,4.996699,-3.0813377,6.0046577,-0.07086037,0.02443461,0.06963864
1757686700072,4.474763,-3.4476504,6.2488666,-0.07086037,0.02443461,0.06963864
1757686700074,4.474763,-3.4476504,6.2488666,-0.3848451,-0.0061086523,0.0
1757686700092,3.787627,-3.679888,6.2225304,-0.3848451,-0.0061086523,0.0
1757686700094,3.787627,-3.679888,6.2225304,-0.46181414,-0.10140363,-0.062308256
1757686700112,3.8953662,-3.6008794,5.8945246,-0.46181414,-0.10140363,-0.062308256
1757686700114,3.8953662,-3.6008794,5.8945246,-0.4801401,-0.29565877,-0.10751228
1757686700132,4.426879,-3.1794999,5.6551046,-0.4801401,-0.29565877,-0.10751228
1757686700134,4.426879,-3.1794999,5.6551046,-0.56321776,-0.45937067,-0.13561209
1757686700151,4.4915223,-3.3782187,5.568913,-0.56321776,-0.45937067,-0.13561209
1757686700153,4.4915223,-3.3782187,5.568913,-0.79045963,-0.5216789,-0.13805555
1757686700171,4.4795513,-4.175488,5.568913,-0.79045963,-0.5216789,-0.13805555
1757686700173,4.4795513,-4.175488,5.568913,-0.9431759,-0.55833083,-0.119729586
1757686700192,4.465186,-4.414908,5.5282116,-0.9431759,-0.55833083,-0.119729586
1757686700194,4.465186,-4.414908,5.5282116,-0.784351,-0.6365216,-0.07452556
1757686700213,4.237737,-4.185065,4.915296,-0.784351,-0.6365216,-0.07452556
1757686700214,4.237737,-4.185065,4.915296,-0.54367006,-0.66706485,-0.081855945
1757686700232,4.098873,-3.6128504,4.134786,-0.54367006,-0.66706485,-0.081855945
1757686700233,4.098873,-3.6128504,4.134786,-0.408058,-0.6377433,-0.07452556
1757686700252,4.0653543,-3.5410242,3.4261026,-0.408058,-0.6377433,-0.07452556
1757686700253,4.0653543,-3.5410242,3.4261026,-0.35796702,-0.54611355,-0.042760566
1757686700272,3.5170822,-3.8977604,2.96881,-0.35796702,-0.54611355,-0.042760566
1757686700274,3.5170822,-3.8977604,2.96881,-0.34574974,-0.4007276,0.014660766
1757686700292,2.6647465,-4.4196963,2.1739352,-0.34574974,-0.4007276,0.014660766
1757686700294,2.6647465,-4.4196963,2.1739352,-0.19058995,-0.35063666,0.10995574
1757686700313,2.8538885,-3.9073372,1.6160861,-0.19058995,-0.35063666,0.10995574
1757686700314,2.8538885,-3.9073372,1.6160861,-0.035430185,-0.41538838,0.2761111
1757686700332,3.5577838,-3.5314474,1.9153614,-0.035430185,-0.41538838,0.2761111
1757686700334,3.5577838,-3.5314474,1.9153614,0.021991149,-0.38728857,0.38362336
1757686700352,3.8594532,-3.3303347,2.2768857,0.021991149,-0.38728857,0.38362336
1757686700353,3.8594532,-3.3303347,2.2768857,0.05009095,-0.2284636,0.3933972
1757686700373,3.70383,-2.9472623,3.0382419,0.05009095,-0.2284636,0.3933972
1757686700374,3.70383,-2.9472623,3.0382419,0.029321533,-0.07452556,0.267559
1757686700391,3.9839516,-2.918532,3.4380736,0.029321533,-0.07452556,0.267559
1757686700393,3.9839516,-2.918532,3.4380736,-0.09285152,-0.10262536,0.16737708
1757686700412,4.548983,-3.2034419,4.2042184,-0.09285152,-0.10262536,0.16737708
1757686700414,4.548983,-3.2034419,4.2042184,-0.30665436,-0.2003638,0.103847094
1757686700433,4.6255975,-3.799598,4.6686935,-0.30665436,-0.2003638,0.103847094
1757686700434,4.6255975,-3.799598,4.6686935,-0.44837508,-0.25289822,0.07086037
1757686700452,4.697424,-4.7070007,4.7141833,-0.44837508,-0.25289822,0.07086037
1757686700453,4.697424,-4.7070007,4.7141833,-0.35796702,-0.25900686,-0.004886922
1757686700473,5.3701944,-4.9895163,4.5777135,-0.35796702,-0.25900686,-0.004886922
1757686700474,5.3701944,-4.9895163,4.5777135,-0.10751228,-0.2687807,-0.08674286
1757686700493,5.470751,-4.6926355,4.9320555,-0.10751228,-0.2687807,-0.08674286
1757686700494,5.470751,-4.6926355,4.9320555,-0.004886922,-0.24556783,-0.1160644
1757686700513,5.2145715,-4.9344497,5.5162406,-0.004886922,-0.24556783,-0.1160644
1757686700514,5.2145715,-4.9344497,5.5162406,-0.14294247,-0.21868975,-0.09040806
1757686700533,6.2584434,-6.813898,5.568913,-0.14294247,-0.21868975,-0.09040806
1757686700534,6.2584434,-6.813898,5.568913,-0.33353242,-0.31642818,0.06719518
1757686700552,6.5385647,-7.07726,5.568913,-0.33353242,-0.31642818,0.06719518
1757686700554,6.5385647,-7.07726,5.568913,-0.19792034,-0.2846632,0.0720821
1757686700573,6.682217,-6.7324953,5.7724204,-0.19792034,-0.2846632,0.0720821
1757686700574,6.682217,-6.7324953,5.7724204,-0.034208454,-0.22602014,0.05375614
1757686700593,7.2592196,-6.8426285,5.7963624,-0.034208454,-0.22602014,0.05375614
1757686700594,7.2592196,-6.8426285,5.7963624,-0.064751714,-0.25045475,0.0720821
1757686700613,7.479486,-7.6135616,5.98311,-0.064751714,-0.25045475,0.0720821
1757686700615,7.479486,-7.6135616,5.98311,-0.19547687,-0.19547687,0.07819075
