timestamp,ax,ay,az,gx,gy,gz
1757592585518,-0.21068975,4.3047748,9.782708,0.12217305,-0.32620203,-0.14660765
1757592585518,-0.21068975,4.3047748,9.782708,-0.012217305,0.028099801,-0.007330383
1757592585547,-0.82599956,3.3255463,9.299079,-0.012217305,0.028099801,-0.007330383
1757592585547,-0.82599956,3.3255463,9.299079,0.5412266,-0.007330383,0.05131268
1757592585559,-1.1492168,2.9257145,9.239224,0.5412266,-0.007330383,0.05131268
1757592585560,-1.1492168,2.9257145,9.239224,-0.91874135,-0.12583824,-0.12583824
1757592585577,-1.1683705,2.9281087,9.445126,-0.91874135,-0.12583824,-0.12583824
1757592585578,-1.1683705,2.9281087,9.445126,-0.4166101,-0.052534413,-0.058643065
1757592585597,-1.1875241,3.0310593,8.796297,-0.4166101,-0.052534413,-0.058643065
1757592585597,-1.1875241,3.0310593,8.796297,-0.40439278,-0.096516706,-0.028099801
1757592585617,-1.0342951,2.9400797,8.597578,-0.40439278,-0.096516706,-0.028099801
1757592585617,-1.0342951,2.9400797,8.597578,-0.46181414,-0.13316862,-0.07574729
1757592585637,-1.42455,2.8538885,8.841787,-0.46181414,-0.13316862,-0.07574729
1757592585637,-1.42455,2.8538885,8.841787,-0.657291,-0.15882497,-0.20525073
1757592585657,-1.3551182,2.5929205,8.863335,-0.657291,-0.15882497,-0.20525073
1757592585658,-1.3551182,2.5929205,8.863335,-0.79045963,-0.25411993,-0.312763
1757592585677,-1.0127473,2.5498247,8.47308,-0.79045963,-0.25411993,-0.312763
1757592585677,-1.0127473,2.5498247,8.47308,-0.93462384,-0.31642818,-0.31398472
1757592585699,-0.9624691,2.171541,8.073248,-0.93462384,-0.31642818,-0.31398472
1757592585699,-0.9624691,2.171541,8.073248,-1.1129965,-0.32498032,-0.21991149
1757592585719,-0.60812724,2.0805612,7.599196,-1.1129965,-0.32498032,-0.21991149
1757592585719,-0.60812724,2.0805612,7.599196,-1.2999213,-0.3286455,-0.08674286
1757592585739,-0.46447513,2.1739352,7.326257,-1.2999213,-0.3286455,-0.08674286
1757592585739,-0.46447513,2.1739352,7.326257,-1.2889256,-0.36896262,-0.0036651916
1757592585758,-0.23463176,2.219425,6.8306575,-1.2889256,-0.36896262,-0.0036651916
1757592585758,-0.23463176,2.219425,6.8306575,-1.1508701,-0.37507126,0.07574729
1757592585778,-0.22505496,1.7286136,6.6247563,-1.1508701,-0.37507126,0.07574729
1757592585778,-0.22505496,1.7286136,6.6247563,-0.9211848,-0.36041048,0.16737708
1757592585799,-0.10534488,1.7741034,6.6893997,-0.9211848,-0.36041048,0.16737708
1757592585799,-0.10534488,1.7741034,6.6893997,-0.66828656,-0.37018433,0.204029
1757592585818,0.34955344,3.13401,6.6750345,-0.66828656,-0.37018433,0.204029
1757592585818,0.34955344,3.13401,6.6750345,-0.8393288,-0.31887165,0.40683624
1757592585839,-0.90500826,2.7581203,6.325481,-0.8393288,-0.31887165,0.40683624
1757592585839,-0.90500826,2.7581203,6.325481,-0.9981538,-0.3811799,0.40561453
1757592585859,-0.23223756,3.2561142,6.1866174,-0.9981538,-0.3811799,0.40561453
1757592585859,-0.23223756,3.2561142,6.1866174,-0.7318166,-0.4373795,0.4605924
1757592585879,-0.30166942,4.201824,6.4404025,-0.7318166,-0.4373795,0.4605924
1757592585879,-0.30166942,4.201824,6.4404025,-1.1594223,-0.45204028,0.13439035
1757592585899,-0.05267244,2.4660277,8.0445175,-1.1594223,-0.45204028,0.13439035
1757592585899,-0.05267244,2.4660277,8.0445175,-1.9278907,-0.72204274,0.18936823
1757592585918,-0.05267244,-0.20111294,9.449914,-1.9278907,-0.72204274,0.18936823
1757592585919,-0.05267244,-0.20111294,9.449914,-2.6658158,-1.0140363,-0.08307768
1757592585939,0.17238252,-1.8602947,10.546458,-2.6658158,-1.0140363,-0.08307768
1757592585939,0.17238252,-1.8602947,10.546458,-3.2840116,-1.3952162,-0.25045475
1757592585959,0.5291186,-2.5067291,11.025299,-3.2840116,-1.3952162,-0.25045475
1757592585959,0.5291186,-2.5067291,11.025299,-3.8899899,-1.7507398,-0.5656612
1757592585978,1.982399,-5.020641,10.326192,-3.8899899,-1.7507398,-0.5656612
1757592585978,1.982399,-5.020641,10.326192,-5.194798,-2.2650883,-1.613906
1757592585999,3.2249897,-5.837064,9.287108,-5.194798,-2.2650883,-1.613906
1757592585999,3.2249897,-5.837064,9.287108,-6.0903263,-2.3909266,-2.39337
1757592586018,4.88896,-7.9487495,8.851364,-6.0903263,-2.3909266,-2.39337
1757592586018,4.88896,-7.9487495,8.851364,-6.491054,-2.348166,-3.1422908
1757592586039,6.528988,-7.7572136,7.3166804,-6.491054,-2.348166,-3.1422908
1757592586040,6.528988,-7.7572136,7.3166804,-6.401868,-1.9486601,-3.844786
1757592586058,7.0126166,-6.895301,7.043741,-6.401868,-1.9486601,-3.844786
1757592586059,7.0126166,-6.895301,7.043741,-5.425705,-1.2131784,-4.134336
1757592586078,5.7365074,-5.521029,6.7588315,-5.425705,-1.2131784,-4.134336
1757592586078,5.7365074,-5.521029,6.7588315,-4.546059,-0.42638394,-4.2675047
1757592586099,4.381389,-3.1794999,5.3821654,-4.546059,-0.42638394,-4.2675047
1757592586099,4.381389,-3.1794999,5.3821654,-4.376239,0.28344148,-4.3004913
1757592586118,3.9839516,-2.779668,3.6128504,-4.376239,0.28344148,-4.3004913
1757592586118,3.9839516,-2.779668,3.6128504,-4.353026,0.7696902,-4.0011673
1757592586138,4.1036615,-4.3382936,3.4237084,-4.353026,0.7696902,-4.0011673
1757592586139,4.1036615,-4.3382936,3.4237084,-4.0866885,1.1887437,-3.6639698
1757592586159,3.3901896,-6.8043213,4.642357,-4.0866885,1.1887437,-3.6639698
1757592586159,3.3901896,-6.8043213,4.642357,-2.5949554,1.9193386,-2.9981265
1757592586179,3.3973722,-5.901707,4.745308,-2.5949554,1.9193386,-2.9981265
1757592586179,3.3973722,-5.901707,4.745308,-1.5882497,2.1587977,-2.5802948
1757592586200,3.9336734,-3.904943,4.572925,-1.5882497,2.1587977,-2.5802948
1757592586200,3.9336734,-3.904943,4.572925,-0.8539896,2.2858577,-2.1294763
1757592586218,4.048595,-2.3558946,4.6950297,-0.8539896,2.2858577,-2.1294763
1757592586219,4.048595,-2.3558946,4.6950297,-0.48258355,2.3945918,-1.6749926
1757592586239,3.643975,-1.7764976,5.616797,-0.48258355,2.3945918,-1.6749926
1757592586240,3.643975,-1.7764976,5.616797,-0.6059783,2.411696,-1.3084733
1757592586259,3.6152446,-2.0111294,5.9424086,-0.6059783,2.411696,-1.3084733
1757592586259,3.6152446,-2.0111294,5.9424086,-1.0812315,2.2870796,-1.0433578
1757592586279,4.5537715,-3.1435869,5.8634,-1.0812315,2.2870796,-1.0433578
1757592586279,4.5537715,-3.1435869,5.8634,-1.1569787,2.1038198,-0.8246681
1757592586299,5.911284,-3.9432502,7.843405,-1.1569787,2.1038198,-0.8246681
1757592586299,5.911284,-3.9432502,7.843405,-0.30665436,2.058616,-0.7281514
1757592586319,4.88896,-2.4660277,7.098808,-0.30665436,2.058616,-0.7281514
1757592586319,4.88896,-2.4660277,7.098808,1.2913691,1.5882497,-0.5338962
1757592586340,5.1571107,-1.0989386,6.742072,1.2913691,1.5882497,-0.5338962
1757592586340,5.1571107,-1.0989386,6.742072,1.5833627,1.2657127,-0.27977628
1757592586360,5.74369,1.5011644,8.449138,1.5833627,1.2657127,-0.27977628
1757592586360,5.74369,1.5011644,8.449138,0.6743952,0.8894198,-0.059864793
1757592586380,5.2768207,-1.4508862,7.9343843,0.6743952,0.8894198,-0.059864793
1757592586380,5.2768207,-1.4508862,7.9343843,-0.9456194,0.44226643,-0.24312437
1757592586400,7.0126166,-4.0821137,6.277597,-0.9456194,0.44226643,-0.24312437
1757592586400,7.0126166,-4.0821137,6.277597,-1.4184291,0.19181168,-0.40194935
1757592586421,6.825869,-4.644751,6.0477533,-1.4184291,0.19181168,-0.40194935
1757592586421,6.825869,-4.644751,6.0477533,-0.5290093,0.47769663,-0.32620203
1757592586439,5.2887917,-2.9903579,6.823475,-0.5290093,0.47769663,-0.32620203
1757592586439,5.2887917,-2.9903579,6.823475,0.3726278,0.65240407,-0.29932398
1757592586465,4.596867,-1.7764976,7.28795,0.3726278,0.65240407,-0.29932398
1757592586466,4.596867,-1.7764976,7.28795,0.5864306,0.50579643,-0.15271631
1757592586484,4.6255975,-1.9632454,7.249643,0.5864306,0.50579643,-0.15271631
1757592586485,4.6255975,-1.9632454,7.249643,0.02443461,0.013439035,0.07086037
1757592586502,4.453215,-3.691859,6.6271505,0.02443461,0.013439035,0.07086037
1757592586504,4.453215,-3.691859,6.6271505,-0.3848451,-0.19425514,0.05009095
1757592586522,4.261679,-4.050989,6.3446345,-0.3848451,-0.19425514,0.05009095
1757592586523,4.261679,-4.050989,6.3446345,-0.49113566,-0.30176744,-0.02321288
1757592586542,3.6248214,-3.8283286,6.167464,-0.49113566,-0.30176744,-0.02321288
1757592586544,3.6248214,-3.8283286,6.167464,-0.36163223,-0.29810223,-0.032986723
1757592586564,3.5122938,-2.9759927,6.0597243,-0.36163223,-0.29810223,-0.032986723
1757592586566,3.5122938,-2.9759927,6.0597243,-0.2125811,-0.36163223,0.012217305
1757592586584,3.5697548,-2.4756045,5.9759274,-0.2125811,-0.36163223,0.012217305
1757592586586,3.5697548,-2.4756045,5.9759274,-0.15393804,-0.39828414,0.10995574
1757592586604,3.2082303,-2.420538,5.887342,-0.15393804,-0.39828414,0.10995574
1757592586607,3.2082303,-2.420538,5.887342,-0.20647246,-0.43371433,0.18570304
1757592586623,2.908955,-2.504335,5.398925,-0.20647246,-0.43371433,0.18570304
1757592586625,2.908955,-2.504335,5.398925,-0.19425514,-0.41905355,0.21502456
1757592586643,2.9879637,-2.8299465,4.9081135,-0.19425514,-0.41905355,0.21502456
1757592586645,2.9879637,-2.8299465,4.9081135,-0.043982297,-0.408058,0.21135938
1757592586664,3.5338416,-2.2385786,4.285621,-0.043982297,-0.408058,0.21135938
1757592586665,3.5338416,-2.2385786,4.285621,0.09407325,-0.31764993,0.16126843
1757592586684,3.347094,-2.4875755,3.8714242,0.09407325,-0.31764993,0.16126843
1757592586686,3.347094,-2.4875755,3.8714242,0.058643065,-0.22235495,0.11728613
1757592586704,3.5075054,-3.016694,3.5003228,0.058643065,-0.22235495,0.11728613
1757592586705,3.5075054,-3.016694,3.5003228,0.0842994,-0.13439035,0.05009095
1757592586723,3.821146,-2.942474,3.442862,0.0842994,-0.13439035,0.05009095
1757592586724,3.821146,-2.942474,3.442862,0.22968534,-0.081855945,0.0
1757592586743,3.7062242,-2.6360161,3.7445314,0.22968534,-0.081855945,0.0
1757592586744,3.7062242,-2.6360161,3.7445314,0.31887165,-0.02687807,-0.021991149
1757592586764,4.2664676,-2.657564,3.8498764,0.31887165,-0.02687807,-0.021991149
1757592586766,4.2664676,-2.657564,3.8498764,0.08552113,-0.0061086523,-0.06719518
1757592586784,5.0182467,-3.4284968,3.8067808,0.08552113,-0.0061086523,-0.06719518
1757592586786,5.0182467,-3.4284968,3.8067808,-0.21746802,0.028099801,-0.105068825
1757592586804,5.0637364,-4.537012,4.0701427,-0.21746802,0.028099801,-0.105068825
1757592586805,5.0637364,-4.537012,4.0701427,-0.19425514,0.12950343,-0.13683382
1757592586824,4.9823337,-4.209007,4.7620673,-0.19425514,0.12950343,-0.13683382
1757592586825,4.9823337,-4.209007,4.7620673,0.20891592,0.26267207,-0.15515977
1757592586843,4.5561657,-4.0174704,5.145139,0.20891592,0.26267207,-0.15515977
1757592586844,4.5561657,-4.0174704,5.145139,0.33964106,0.31764993,-0.17959438
1757592586864,4.55856,-3.6727054,5.851429,0.33964106,0.31764993,-0.17959438
1757592586865,4.55856,-3.6727054,5.851429,0.33841935,0.31031954,-0.18570304
1757592586883,4.7620673,-3.4500446,5.887342,0.33841935,0.31031954,-0.18570304
1757592586885,4.7620673,-3.4500446,5.887342,0.119729586,0.28955013,-0.2125811
1757592586903,5.3127337,-3.4572272,5.9687448,0.119729586,0.28955013,-0.2125811
1757592586905,5.3127337,-3.4572272,5.9687448,-0.172264,0.2321288,-0.17837265
1757592586923,5.4444146,-3.9600096,6.042965,-0.172264,0.2321288,-0.17837265
1757592586925,5.4444146,-3.9600096,6.042965,-0.37507126,0.21624629,-0.12461651
1757592586943,5.6096144,-4.7165775,6.241684,-0.37507126,0.21624629,-0.12461651
1757592586944,5.6096144,-4.7165775,6.241684,-0.344528,0.19181168,-0.021991149
1757592586963,5.923255,-5.197812,6.576872,-0.344528,0.19181168,-0.021991149
1757592586964,5.923255,-5.197812,6.576872,-0.16737708,0.17592919,0.04642576
1757592586983,6.0022635,-4.900931,6.8665705,-0.16737708,0.17592919,0.04642576
1757592586985,6.0022635,-4.900931,6.8665705,-0.10140363,0.14660765,0.062308256
1757592587001,6.169858,-4.865018,7.6853876,-0.10140363,0.14660765,0.062308256
1757592587002,6.169858,-4.865018,7.6853876,-0.47769663,0.096516706,0.007330383
1757592587022,6.2967505,-5.801151,7.893683,-0.47769663,0.096516706,0.007330383
1757592587023,6.2967505,-5.801151,7.893683,-0.7770206,0.07941248,-0.019547688
1757592587042,6.540959,-6.363788,7.795521,-0.7770206,0.07941248,-0.019547688
1757592587043,6.540959,-6.363788,7.795521,-0.766025,0.09285152,-0.02443461
1757592587062,6.5361705,-6.754043,8.420407,-0.766025,0.09285152,-0.02443461
1757592587062,6.5361705,-6.754043,8.420407,-0.45081854,0.10629055,0.007330383
1757592587082,6.811504,-6.469133,8.616732,-0.45081854,0.10629055,0.007330383
1757592587083,6.811504,-6.469133,8.616732,-0.042760566,0.07696902,0.061086524
1757592587102,6.933608,-5.887342,8.75799,-0.042760566,0.07696902,0.061086524
1757592587104,6.933608,-5.887342,8.75799,0.18203785,0.07819075,0.07696902
1757592587122,6.7827735,-5.7149596,9.239224,0.18203785,0.07819075,0.07696902
1757592587123,6.7827735,-5.7149596,9.239224,0.040317107,0.056199603,0.06352998
1757592587142,6.7372837,-6.5337763,9.028535,0.040317107,0.056199603,0.06352998
1757592587144,6.7372837,-6.5337763,9.028535,-0.37507126,-0.07696902,0.06352998
1757592587161,7.6135616,-8.180987,9.3182335,-0.37507126,-0.07696902,0.06352998
1757592587162,7.6135616,-8.180987,9.3182335,-0.3200934,-0.1685988,0.07819075
1757592587181,7.7308774,-8.14268,9.859323,-0.3200934,-0.1685988,0.07819075
1757592587182,7.7308774,-8.14268,9.859323,0.013439035,-0.065973446,0.09773844
1757592587201,7.7931266,-7.776367,10.18254,0.013439035,-0.065973446,0.09773844
1757592587202,7.7931266,-7.776367,10.18254,0.18448131,0.018325957,0.10629055
1757592587222,8.166622,-7.6973586,10.723629,0.18448131,0.018325957,0.10629055
1757592587222,8.166622,-7.6973586,10.723629,0.08307768,0.043982297,0.10751228
1757592587242,8.468291,-7.8888946,11.049241,0.08307768,0.043982297,0.10751228
1757592587242,8.468291,-7.8888946,11.049241,-0.27122417,0.06719518,0.073303826
1757592587264,8.62152,-8.772355,10.977415,-0.27122417,0.06719518,0.073303826
1757592587265,8.62152,-8.772355,10.977415,-0.4728097,0.07574729,0.02687807
1757592587283,8.425196,-8.966286,10.828975,-0.4728097,0.07574729,0.02687807
1757592587285,8.425196,-8.966286,10.828975,-0.3921755,0.08674286,-0.035430185
1757592587304,8.23366,-8.820239,11.022904,-0.3921755,0.08674286,-0.035430185
1757592587305,8.23366,-8.820239,11.022904,-0.1600467,0.1160644,-0.058643065
1757592587323,8.259995,-8.487445,11.228806,-0.1600467,0.1160644,-0.058643065
1757592587324,8.259995,-8.487445,11.228806,0.0036651916,0.20525073,-0.07452556
1757592587343,7.347805,-7.615956,11.030087,0.0036651916,0.20525073,-0.07452556
1757592587344,7.347805,-7.615956,11.030087,-0.007330383,0.28588495,-0.087964594
1757592587364,7.144298,-7.5920134,10.757148,-0.007330383,0.28588495,-0.087964594
1757592587366,7.144298,-7.5920134,10.757148,-0.015882496,0.2406809,-0.06352998
1757592587384,7.038953,-7.785944,10.481815,-0.015882496,0.2406809,-0.06352998
1757592587385,7.038953,-7.785944,10.481815,0.13194689,0.1966986,-0.021991149
1757592587404,7.2472486,-7.833828,10.204087,0.13194689,0.1966986,-0.021991149
1757592587405,7.2472486,-7.833828,10.204087,0.29932398,0.17715092,-0.019547688
1757592587424,7.0461354,-7.422025,9.653421,0.29932398,0.17715092,-0.019547688
1757592587425,7.0461354,-7.422025,9.653421,0.42271876,0.22479841,-0.058643065
1757592587446,6.8785415,-6.993463,9.100361,0.42271876,0.22479841,-0.058643065
1757592587447,6.8785415,-6.993463,9.100361,0.53023106,0.24678956,-0.08307768
1757592587464,6.847417,-6.5577183,8.652645,0.53023106,0.24678956,-0.08307768
1757592587466,6.847417,-6.5577183,8.652645,0.52290064,0.2125811,-0.09040806
1757592587483,6.943185,-6.543353,8.204929,0.52290064,0.2125811,-0.09040806
1757592587485,6.943185,-6.543353,8.204929,0.41783184,0.1966986,-0.10140363
1757592587503,6.6870055,-6.603208,8.221688,0.41783184,0.1966986,-0.10140363
1757592587505,6.6870055,-6.603208,8.221688,0.31887165,0.2724459,-0.09407325
1757592587524,6.2728086,-6.421249,8.204929,0.31887165,0.2724459,-0.09407325
1757592587526,6.2728086,-6.421249,8.204929,0.29932398,0.32253686,-0.10140363
1757592587543,6.0645127,-6.1650696,8.319851,0.29932398,0.32253686,-0.10140363
1757592587545,6.0645127,-6.1650696,8.319851,0.26267207,0.35308012,-0.105068825
1757592587564,5.9926867,-5.9567738,8.355764,0.26267207,0.35308012,-0.105068825
1757592587566,5.9926867,-5.9567738,8.355764,0.19792034,0.4129449,-0.12461651
1757592587583,5.731719,-5.781997,8.336611,0.19792034,0.4129449,-0.12461651
1757592587584,5.731719,-5.781997,8.336611,0.19303341,0.49602258,-0.1282817
1757592587604,5.2983685,-5.686229,8.271967,0.19303341,0.49602258,-0.1282817
1757592587607,5.2983685,-5.686229,8.271967,0.27366763,0.56077427,-0.11362094
1757592587624,5.011064,-5.592855,8.327033,0.27366763,0.56077427,-0.11362094
1757592587628,5.011064,-5.592855,8.327033,0.43982297,0.59131753,-0.09040806
1757592587645,4.759673,-5.1642933,8.157045,0.43982297,0.59131753,-0.09040806
1757592587646,4.759673,-5.1642933,8.157045,0.61453044,0.59131753,-0.06352998
1757592587664,4.345476,-4.8267107,7.967903,0.61453044,0.59131753,-0.06352998
1757592587666,4.345476,-4.8267107,7.967903,0.70371675,0.6096435,-0.05497787
1757592587684,3.9983168,-4.51307,7.467515,0.70371675,0.6096435,-0.05497787
1757592587685,3.9983168,-4.51307,7.467515,0.7684685,0.5571091,-0.047647487
1757592587704,3.9145198,-4.175488,7.0365586,0.7684685,0.5571091,-0.047647487
1757592587705,3.9145198,-4.175488,7.0365586,0.8857546,0.5338962,-0.028099801
1757592587724,3.5745432,-3.8187518,6.799533,0.8857546,0.5338962,-0.028099801
1757592587725,3.5745432,-3.8187518,6.799533,0.9957104,0.5180137,0.008552114
1757592587745,3.25372,-3.6990416,6.579266,0.9957104,0.5180137,0.008552114
1757592587746,3.25372,-3.6990416,6.579266,0.9896017,0.47769663,0.014660766
1757592587764,2.9735985,-3.4261026,6.208165,0.9896017,0.47769663,0.014660766
1757592587765,2.9735985,-3.4261026,6.208165,0.98837996,0.43493605,0.012217305
1757592587783,2.8514943,-2.956839,5.9160724,0.98837996,0.43493605,0.012217305
1757592587785,2.8514943,-2.956839,5.9160724,1.0494665,0.39706242,0.034208454
1757592587804,2.5881321,-2.5905263,5.473145,1.0494665,0.39706242,0.034208454
1757592587806,2.5881321,-2.5905263,5.473145,1.1203269,0.3567453,0.042760566
1757592587825,2.44448,-2.135628,5.011064,1.1203269,0.3567453,0.042760566
1757592587826,2.44448,-2.135628,5.011064,1.1704178,0.37140608,0.059864793
1757592587845,2.1284454,-1.316811,4.3119574,1.1704178,0.37140608,0.059864793
1757592587846,2.1284454,-1.316811,4.3119574,1.0665708,0.37995818,0.09407325
1757592587864,1.9656396,-1.1731589,3.9624038,1.0665708,0.37995818,0.09407325
1757592587866,1.9656396,-1.1731589,3.9624038,0.93828905,0.38362336,0.10140363
1757592587885,1.8291701,-1.3742718,3.7780502,0.93828905,0.38362336,0.10140363
1757592587886,1.8291701,-1.3742718,3.7780502,0.8857546,0.38362336,0.07941248
1757592587905,1.5059528,-1.2042835,3.5649664,0.8857546,0.38362336,0.07941248
1757592587906,1.5059528,-1.2042835,3.5649664,0.95417154,0.4447099,0.02687807
1757592587925,1.3000516,-0.6560113,3.25372,0.95417154,0.4447099,0.02687807
1757592587926,1.3000516,-0.6560113,3.25372,1.0897835,0.5522222,-0.02443461
1757592587945,1.0989386,-0.090979666,3.086126,1.0897835,0.5522222,-0.02443461
1757592587946,1.0989386,-0.090979666,3.086126,1.0873401,0.6291912,-0.06841691
1757592587964,0.80924016,0.31603462,3.169923,1.0873401,0.6291912,-0.06841691
1757592587966,0.80924016,0.31603462,3.169923,0.99082345,0.6792821,-0.080634214
1757592587985,0.7733272,0.44771573,3.6463692,0.99082345,0.6792821,-0.080634214
1757592587986,0.7733272,0.44771573,3.6463692,0.95294976,0.7293731,-0.061086524
1757592588005,1.091756,0.641646,4.223372,0.95294976,0.7293731,-0.061086524
1757592588006,1.091756,0.641646,4.223372,0.9663888,0.7648033,0.010995574
1757592588024,1.4796166,0.50278234,6.0501475,0.9663888,0.7648033,0.010995574
1757592588026,1.4796166,0.50278234,6.0501475,0.91751957,0.66706485,0.11362094
1757592588044,1.1587936,0.6871359,7.395689,0.91751957,0.66706485,0.11362094
1757592588046,1.1587936,0.6871359,7.395689,0.8735373,0.5705481,0.19425514
1757592588065,1.328782,1.4101849,8.599973,0.8735373,0.5705481,0.19425514
1757592588066,1.328782,1.4101849,8.599973,0.5522222,0.31031954,0.2883284
1757592588082,1.6998832,1.8100165,9.603143,0.5522222,0.31031954,0.2883284
1757592588083,1.6998832,1.8100165,9.603143,-0.34697145,-0.09773844,0.33108896
1757592588104,2.8538885,0.5434838,9.883265,-0.34697145,-0.09773844,0.33108896
1757592588106,2.8538885,0.5434838,9.883265,-1.4660766,-0.48624873,0.27977628
1757592588122,4.050989,-2.1452048,9.885659,-1.4660766,-0.48624873,0.27977628
1757592588124,4.050989,-2.1452048,9.885659,-2.0525072,-0.56077427,0.18203785
1757592588143,4.6136265,-3.715801,10.254366,-2.0525072,-0.56077427,0.18203785
1757592588144,4.6136265,-3.715801,10.254366,-1.7654005,-0.3933972,0.10873401
1757592588162,3.6128504,-3.4931402,10.769119,-1.7654005,-0.3933972,0.10873401
1757592588162,3.6128504,-3.4931402,10.769119,-0.93218035,-0.09285152,0.12217305
1757592588182,1.5873557,-1.4748282,11.528081,-0.93218035,-0.09285152,0.12217305
1757592588183,1.5873557,-1.4748282,11.528081,0.010995574,0.09285152,0.08674286
1757592588203,1.0702082,-0.6631939,11.147403,0.010995574,0.09285152,0.08674286
1757592588204,1.0702082,-0.6631939,11.147403,0.28955013,0.105068825,0.03176499
1757592588223,1.2330139,-0.047884032,10.213664,0.28955013,0.105068825,0.03176499
1757592588224,1.2330139,-0.047884032,10.213664,0.42394048,0.061086524,0.08552113
1757592588244,1.6591818,0.11731588,9.361329,0.42394048,0.061086524,0.08552113
1757592588244,1.6591818,0.11731588,9.361329,0.408058,-0.015882496,0.15515977
1757592588265,1.9656396,-0.22984336,8.413225,0.408058,-0.015882496,0.15515977
1757592588266,1.9656396,-0.22984336,8.413225,0.25167647,-0.09285152,0.18081611
1757592588285,2.2098482,-0.5315128,7.704541,0.25167647,-0.09285152,0.18081611
1757592588286,2.2098482,-0.5315128,7.704541,0.010995574,-0.23701571,0.15760323
1757592588305,2.4851813,-0.80924016,7.029376,0.010995574,-0.23701571,0.15760323
1757592588306,2.4851813,-0.80924016,7.029376,-0.37140608,-0.376293,0.12705997
1757592588326,2.815581,-1.1587936,6.5002575,-0.37140608,-0.376293,0.12705997
1757592588327,2.815581,-1.1587936,6.5002575,-0.73426,-0.49480084,0.111177474
1757592588346,3.0358477,-1.436521,6.576872,-0.73426,-0.49480084,0.111177474
1757592588347,3.0358477,-1.436521,6.576872,-0.9126327,-0.52290064,0.087964594
1757592588367,2.5929205,-1.376666,7.089231,-0.9126327,-0.52290064,0.087964594
1757592588369,2.5929205,-1.376666,7.089231,-0.9615019,-0.44593164,0.05131268
1757592588385,2.243367,-1.1587936,7.5345526,-0.9615019,-0.44593164,0.05131268
1757592588386,2.243367,-1.1587936,7.5345526,-1.0800097,-0.46914452,0.06719518
1757592588404,2.0374656,-1.6112977,7.8984714,-1.0800097,-0.46914452,0.06719518
1757592588406,2.0374656,-1.6112977,7.8984714,-1.2253957,-0.5656612,0.032986723
1757592588425,2.0733786,-1.6663644,7.8984714,-1.2253957,-0.5656612,0.032986723
1757592588426,2.0733786,-1.6663644,7.8984714,-1.1826351,-0.6230826,0.015882496
1757592588444,2.0925324,-1.5658079,7.577648,-1.1826351,-0.6230826,0.015882496
1757592588446,2.0925324,-1.5658079,7.577648,-1.0775663,-0.68416905,0.019547688
1757592588465,2.0590134,-1.6280571,7.0006456,-1.0775663,-0.68416905,0.019547688
1757592588466,2.0590134,-1.6280571,7.0006456,-1.0396926,-0.7635816,0.002443461
1757592588485,2.0159178,-1.8339585,6.3302693,-1.0396926,-0.7635816,0.002443461
1757592588486,2.0159178,-1.8339585,6.3302693,-0.9859365,-0.8136725,-0.02565634
1757592588505,1.9991584,-1.8746599,5.6910176,-0.9859365,-0.8136725,-0.02565634
1757592588506,1.9991584,-1.8746599,5.6910176,-0.8051204,-0.7965683,-0.02687807
1757592588524,2.078167,-2.0446482,4.783615,-0.8051204,-0.7965683,-0.02687807
1757592588526,2.078167,-2.0446482,4.783615,-0.376293,-0.6963864,-0.02443461
1757592588545,2.8203697,-2.4588451,4.3406878,-0.376293,-0.6963864,-0.02443461
1757592588547,2.8203697,-2.4588451,4.3406878,-0.04153884,-0.6780604,0.0
1757592588566,3.6966474,-2.5330653,4.2544966,-0.04153884,-0.6780604,0.0
1757592588567,3.6966474,-2.5330653,4.2544966,0.14294247,-0.6768387,0.042760566
1757592588585,4.1036615,-2.6240451,4.620809,0.14294247,-0.6768387,0.042760566
1757592588586,4.1036615,-2.6240451,4.620809,0.21135938,-0.6914995,0.09896017
1757592588606,3.8283286,-2.8898015,4.996699,0.21135938,-0.6914995,0.09896017
1757592588609,3.8283286,-2.8898015,4.996699,0.14905111,-0.6805039,0.12461651
1757592588625,3.5482068,-3.1771057,5.3941364,0.14905111,-0.6805039,0.12461651
1757592588626,3.5482068,-3.1771057,5.3941364,0.047647487,-0.6267477,0.07086037
1757592588646,4.259285,-2.719813,5.5258174,0.047647487,-0.6267477,0.07086037
1757592588647,4.259285,-2.719813,5.5258174,-0.18936823,-0.6072,-0.009773844
1757592588667,4.8937483,-2.8395233,5.9280434,-0.18936823,-0.6072,-0.009773844
1757592588668,4.8937483,-2.8395233,5.9280434,-0.44593164,-0.5216789,-0.036651913
1757592588685,4.546589,-3.1483753,6.7564373,-0.44593164,-0.5216789,-0.036651913
1757592588688,4.546589,-3.1483753,6.7564373,-0.6059783,-0.27122417,-0.05497787
1757592588705,4.256891,-3.1842883,7.1993647,-0.6059783,-0.27122417,-0.05497787
1757592588707,4.256891,-3.1842883,7.1993647,-0.45937067,-0.06841691,-0.009773844
1757592588726,4.3382936,-3.1052797,7.563283,-0.45937067,-0.06841691,-0.009773844
1757592588728,4.3382936,-3.1052797,7.563283,-0.43004912,0.030543262,-0.029321533
1757592588746,4.7165775,-3.6703112,7.85777,-0.43004912,0.030543262,-0.029321533
1757592588748,4.7165775,-3.6703112,7.85777,-0.46670106,0.029321533,-0.07696902
1757592588766,5.092467,-4.259285,8.4108305,-0.46670106,0.029321533,-0.07696902
1757592588767,5.092467,-4.259285,8.4108305,-0.312763,-0.014660766,-0.07941248
1757592588786,5.425261,-4.402937,8.432379,-0.312763,-0.014660766,-0.07941248
1757592588787,5.425261,-4.402937,8.432379,-0.07696902,-0.012217305,-0.065973446
1757592588806,5.8083334,-4.891354,8.042124,-0.07696902,-0.012217305,-0.065973446
1757592588808,5.8083334,-4.891354,8.042124,0.26145032,-0.036651913,-0.07086037
1757592588826,5.9567738,-5.3199162,7.965509,0.26145032,-0.036651913,-0.07086037
1757592588828,5.9567738,-5.3199162,7.965509,0.8576548,0.0012217305,-0.052534413
1757592588847,5.0781016,-4.2784386,8.408437,0.8576548,0.0012217305,-0.052534413
1757592588848,5.0781016,-4.2784386,8.408437,1.346347,0.14782938,0.0
1757592588867,4.5441947,-3.3854012,9.294291,1.346347,0.14782938,0.0
1757592588868,4.5441947,-3.3854012,9.294291,0.75869465,0.14294247,-0.07086037
1757592588886,5.5760956,-4.0821137,9.143456,0.75869465,0.14294247,-0.07086037
1757592588887,5.5760956,-4.0821137,9.143456,-0.06963864,0.0012217305,-0.16982053
1757592588907,5.901707,-4.771644,8.868123,-0.06963864,0.0012217305,-0.16982053
1757592588908,5.901707,-4.771644,8.868123,-0.36651915,-0.010995574,-0.14782938
1757592588926,5.81791,-5.073313,8.944737,-0.36651915,-0.010995574,-0.14782938
1757592588928,5.81791,-5.073313,8.944737,-0.18936823,0.018325957,-0.09162979
1757592588946,5.959168,-4.7285485,9.296685,-0.18936823,0.018325957,-0.09162979
1757592588947,5.959168,-4.7285485,9.296685,0.089186326,0.042760566,-0.04153884
1757592588967,5.7149596,-4.381389,9.7324295,0.089186326,0.042760566,-0.04153884
1757592588969,5.7149596,-4.381389,9.7324295,0.1881465,0.07696902,-0.034208454
1757592588986,5.645528,-4.5992613,10.019734,0.1881465,0.07696902,-0.034208454
1757592588987,5.645528,-4.5992613,10.019734,0.08552113,0.007330383,-0.02321288
1757592589006,6.1985884,-4.8602295,10.0748005,0.08552113,0.007330383,-0.02321288
1757592589007,6.1985884,-4.8602295,10.0748005,-0.059864793,-0.09040806,-0.010995574
1757592589026,7.3789296,-5.257667,10.043676,-0.059864793,-0.09040806,-0.010995574
1757592589028,7.3789296,-5.257667,10.043676,-0.25778514,-0.1685988,-0.013439035
1757592589045,7.6015906,-5.5760956,10.077195,-0.25778514,-0.1685988,-0.013439035
1757592589046,7.6015906,-5.5760956,10.077195,-0.30298916,-0.12705997,-0.012217305
1757592589067,7.52737,-5.877765,10.594342,-0.30298916,-0.12705997,-0.012217305
1757592589069,7.52737,-5.877765,10.594342,-0.19425514,-0.10873401,-0.05131268
1757592589085,7.3406224,-5.9280434,11.298238,-0.19425514,-0.10873401,-0.05131268
1757592589087,7.3406224,-5.9280434,11.298238,-0.013439035,-0.1001819,-0.04886922
1757592589107,7.2568254,-5.5162406,11.686098,-0.013439035,-0.1001819,-0.04886922
1757592589110,7.2568254,-5.5162406,11.686098,0.02076942,-0.08674286,-0.037873644
1757592589125,7.524976,-5.353435,11.473015,0.02076942,-0.08674286,-0.037873644
1757592589127,7.524976,-5.353435,11.473015,-0.26145032,-0.14172074,-0.008552114
1757592589147,7.764396,-5.877765,11.152191,-0.26145032,-0.14172074,-0.008552114
1757592589148,7.764396,-5.877765,11.152191,-0.52656585,-0.16737708,0.013439035
1757592589167,7.8649526,-6.591237,11.269507,-0.52656585,-0.16737708,0.013439035
1757592589168,7.8649526,-6.591237,11.269507,-0.4886922,-0.096516706,0.042760566
1757592589185,7.7931266,-6.9288197,11.513716,-0.4886922,-0.096516706,0.042760566
1757592589186,7.7931266,-6.9288197,11.513716,-0.28710666,0.02321288,0.02687807
1757592589206,7.264008,-6.169858,12.042834,-0.28710666,0.02321288,0.02687807
1757592589208,7.264008,-6.169858,12.042834,-0.02321288,0.16737708,-0.032986723
1757592589226,6.83784,-5.6239796,11.827356,-0.02321288,0.16737708,-0.032986723
1757592589227,6.83784,-5.6239796,11.827356,0.0,0.17470746,-0.04520403
1757592589247,6.871359,-5.6551046,11.240777,0.0,0.17470746,-0.04520403
1757592589248,6.871359,-5.6551046,11.240777,0.013439035,0.12583824,-0.035430185
1757592589267,6.9479733,-5.616797,10.7356,0.013439035,0.12583824,-0.035430185
1757592589268,6.9479733,-5.616797,10.7356,0.12217305,0.12705997,-0.013439035
1757592589287,6.7468605,-5.765238,10.400413,0.12217305,0.12705997,-0.013439035
1757592589289,6.7468605,-5.765238,10.400413,0.267559,0.15882497,0.012217305
1757592589305,6.6391215,-5.971139,10.149021,0.267559,0.15882497,0.012217305
1757592589306,6.6391215,-5.971139,10.149021,0.36651915,0.15515977,0.012217305
1757592589327,6.7324953,-5.6910176,9.950302,0.36651915,0.15515977,0.012217305
1757592589328,6.7324953,-5.6910176,9.950302,0.4166101,0.14782938,0.014660766
1757592589346,6.7468605,-5.41329,9.509769,0.4166101,0.14782938,0.014660766
1757592589348,6.7468605,-5.41329,9.509769,0.3555236,0.13561209,0.010995574
1757592589366,6.435614,-5.2863975,9.339781,0.3555236,0.13561209,0.010995574
1757592589367,6.435614,-5.2863975,9.339781,0.12583824,0.13927728,0.02076942
1757592589387,6.373365,-5.3103395,9.296685,0.12583824,0.13927728,0.02076942
1757592589389,6.373365,-5.3103395,9.296685,0.014660766,0.17715092,0.02687807
1757592589407,6.3182983,-5.5282116,9.356541,0.014660766,0.17715092,0.02687807
1757592589408,6.3182983,-5.5282116,9.356541,-0.009773844,0.1966986,0.019547688
1757592589425,6.244078,-5.4659624,9.581595,-0.009773844,0.1966986,0.019547688
1757592589427,6.244078,-5.4659624,9.581595,0.07941248,0.24556783,0.010995574
1757592589446,5.839458,-5.1810527,9.737218,0.07941248,0.24556783,0.010995574
1757592589447,5.839458,-5.1810527,9.737218,0.15393804,0.32742378,0.004886922
1757592589465,5.3606176,-4.975151,9.648633,0.15393804,0.32742378,0.004886922
1757592589466,5.3606176,-4.975151,9.648633,0.15515977,0.3848451,-0.02443461
1757592589485,4.9919105,-4.642357,9.339781,0.15515977,0.3848451,-0.02443461
1757592589486,4.9919105,-4.642357,9.339781,0.19547687,0.4166101,-0.043982297
1757592589506,4.6255975,-4.3622355,8.980651,0.19547687,0.4166101,-0.043982297
1757592589507,4.6255975,-4.3622355,8.980651,0.3323107,0.45204028,-0.02443461
1757592589527,4.4460325,-3.6535518,8.4347725,0.3323107,0.45204028,-0.02443461
1757592589528,4.4460325,-3.6535518,8.4347725,0.48502702,0.51068336,0.018325957
1757592589547,4.4244847,-3.6750996,7.9607205,0.48502702,0.51068336,0.018325957
1757592589549,4.4244847,-3.6750996,7.9607205,0.50701815,0.52412236,0.02076942
1757592589567,4.110844,-3.5529952,7.587225,0.50701815,0.52412236,0.02076942
1757592589569,4.110844,-3.5529952,7.587225,0.6010914,0.5290093,0.021991149
1757592589586,4.0222588,-3.1292217,7.079654,0.6010914,0.5290093,0.021991149
1757592589588,4.0222588,-3.1292217,7.079654,0.68783426,0.50701815,0.02443461
1757592589606,3.8259344,-2.5809495,6.5840545,0.68783426,0.50701815,0.02443461
1757592589609,3.8259344,-2.5809495,6.5840545,0.6621779,0.453262,0.021991149
1757592589626,3.6176388,-2.231396,6.066907,0.6621779,0.453262,0.021991149
1757592589627,3.6176388,-2.231396,6.066907,0.52412236,0.40194935,0.015882496
1757592589646,3.1866825,-2.420538,5.662287,0.52412236,0.40194935,0.015882496
1757592589647,3.1866825,-2.420538,5.662287,0.41538838,0.36285394,0.015882496
1757592589666,2.9281087,-2.2505496,5.245696,0.41538838,0.36285394,0.015882496
1757592589667,2.9281087,-2.2505496,5.245696,0.41050145,0.30176744,-0.004886922
1757592589687,2.789245,-1.8004397,5.1547165,0.41050145,0.30176744,-0.004886922
1757592589689,2.789245,-1.8004397,5.1547165,0.5009095,0.2883284,-0.002443461
1757592589707,2.1045034,-1.0965444,5.1523223,0.5009095,0.2883284,-0.002443461
1757592589709,2.1045034,-1.0965444,5.1523223,0.49113566,0.267559,0.037873644
1757592589727,1.9177556,-0.8403648,4.7405195,0.49113566,0.267559,0.037873644
1757592589728,1.9177556,-0.8403648,4.7405195,0.39706242,0.22357668,0.073303826
1757592589747,1.8674773,-1.0007763,4.43885,0.39706242,0.22357668,0.073303826
1757592589749,1.8674773,-1.0007763,4.43885,0.30298916,0.16737708,0.09285152
1757592589767,1.7669208,-0.92655605,3.9983168,0.30298916,0.16737708,0.09285152
1757592589769,1.7669208,-0.92655605,3.9983168,0.28099802,0.1600467,0.103847094
1757592589787,1.721431,-0.5530606,3.98874,0.28099802,0.1600467,0.103847094
1757592589789,1.721431,-0.5530606,3.98874,0.32253686,0.204029,0.11484267
1757592589806,1.5825673,-0.37828386,4.1515455,0.32253686,0.204029,0.11484267
1757592589807,1.5825673,-0.37828386,4.1515455,0.3652974,0.27366763,0.10873401
1757592589828,1.5729905,-0.35434186,4.357447,0.3652974,0.27366763,0.10873401
1757592589829,1.5729905,-0.35434186,4.357447,0.3933972,0.34330627,0.09407325
1757592589848,1.8794483,-0.5722142,4.783615,0.3933972,0.34330627,0.09407325
1757592589849,1.8794483,-0.5722142,4.783615,0.46914452,0.39584067,0.08307768
1757592589868,1.9871874,-0.5722142,5.6000376,0.46914452,0.39584067,0.08307768
1757592589870,1.9871874,-0.5722142,5.6000376,0.6462954,0.4605924,0.09896017
1757592589888,1.7190368,-0.35194764,6.0621185,0.6462954,0.4605924,0.09896017
1757592589889,1.7190368,-0.35194764,6.0621185,0.625526,0.47403142,0.10995574
1757592589907,1.9752164,-0.48841715,6.715736,0.625526,0.47403142,0.10995574
1757592589908,1.9752164,-0.48841715,6.715736,0.36651915,0.36041048,0.11362094
1757592589927,2.4229321,-0.93373865,7.6494746,0.36651915,0.36041048,0.11362094
1757592589929,2.4229321,-0.93373865,7.6494746,0.02321288,0.25900686,0.095294975
1757592589946,2.5306711,-1.508347,8.731653,0.02321288,0.25900686,0.095294975
1757592589948,2.5306711,-1.508347,8.731653,-0.2443461,0.18325958,0.06352998
1757592589968,2.56419,-1.7980455,9.52174,-0.2443461,0.18325958,0.06352998
1757592589969,2.56419,-1.7980455,9.52174,-0.45204028,0.103847094,0.035430185
1757592589988,2.8443117,-2.066196,9.921572,-0.45204028,0.103847094,0.035430185
1757592589989,2.8443117,-2.066196,9.921572,-0.6817256,-0.010995574,-0.035430185
1757592590007,2.885013,-2.2816741,10.084377,-0.6817256,-0.010995574,-0.035430185
1757592590009,2.885013,-2.2816741,10.084377,-0.8405506,-0.08674286,-0.14660765
1757592590028,2.7461493,-2.2337902,9.998186,-0.8405506,-0.08674286,-0.14660765
1757592590029,2.7461493,-2.2337902,9.998186,-0.816116,-0.06963864,-0.22602014
1757592590048,2.7222073,-1.5873557,9.536105,-0.816116,-0.06963864,-0.22602014
1757592590050,2.7222073,-1.5873557,9.536105,-0.46303585,0.02687807,-0.27000242
1757592590071,2.8778305,-1.3144168,9.124303,-0.46303585,0.02687807,-0.27000242
1757592590074,2.8778305,-1.3144168,9.124303,-0.22235495,0.13561209,-0.2773328
1757592590088,3.2225955,-1.400608,8.659827,-0.22235495,0.13561209,-0.2773328
1757592590090,3.2225955,-1.400608,8.659827,-0.02687807,0.18692477,-0.25778514
1757592590108,3.3638535,-1.340753,8.437167,-0.02687807,0.18692477,-0.25778514
1757592590110,3.3638535,-1.340753,8.437167,0.105068825,0.1685988,-0.20158553
1757592590126,3.1555579,-1.2617443,8.173804,0.105068825,0.1685988,-0.20158553
1757592590128,3.1555579,-1.2617443,8.173804,0.09407325,0.09285152,-0.16126843
1757592590148,3.0573955,-1.1947067,7.608773,0.09407325,0.09285152,-0.16126843
1757592590150,3.0573955,-1.1947067,7.608773,-0.02076942,-0.03176499,-0.12217305
1757592590168,3.217807,-1.1587936,7.321469,-0.02076942,-0.03176499,-0.12217305
1757592590170,3.217807,-1.1587936,7.321469,-0.19914207,-0.17837265,-0.11484267
1757592590188,3.2393548,-1.1827357,7.1371155,-0.19914207,-0.17837265,-0.11484267
1757592590189,3.2393548,-1.1827357,7.1371155,-0.48502702,-0.28955013,-0.12461651
1757592590208,3.1435869,-1.4053963,7.3789296,-0.48502702,-0.28955013,-0.12461651
1757592590209,3.1435869,-1.4053963,7.3789296,-0.8564331,-0.37140608,-0.10873401
1757592590228,2.825158,-1.8794483,7.675811,-0.8564331,-0.37140608,-0.10873401
1757592590230,2.825158,-1.8794483,7.675811,-0.9786061,-0.3567453,-0.112399206
1757592590247,2.5689783,-2.0614076,7.8793178,-0.9786061,-0.3567453,-0.112399206
1757592590249,2.5689783,-2.0614076,7.8793178,-0.9334021,-0.33841935,-0.1441642
1757592590267,2.1571758,-1.9009962,8.027759,-0.9334021,-0.33841935,-0.1441642
1757592590269,2.1571758,-1.9009962,8.027759,-0.7440339,-0.3323107,-0.17104226
1757592590288,1.6807296,-1.6208745,7.728483,-0.7440339,-0.3323107,-0.17104226
1757592590290,1.6807296,-1.6208745,7.728483,-0.47403142,-0.344528,-0.1685988
1757592590308,1.388637,-1.4317327,7.16824,-0.47403142,-0.344528,-0.1685988
1757592590309,1.388637,-1.4317327,7.16824,-0.24678956,-0.3726278,-0.12705997
1757592590328,1.5155296,-1.5394717,6.43322,-0.24678956,-0.3726278,-0.12705997
1757592590329,1.5155296,-1.5394717,6.43322,-0.16249016,-0.44226643,-0.08674286
1757592590348,1.9081788,-2.1188686,5.805939,-0.16249016,-0.44226643,-0.08674286
1757592590349,1.9081788,-2.1188686,5.805939,-0.11728613,-0.48991394,-0.057421334
1757592590367,2.231396,-2.80361,4.960786,-0.11728613,-0.48991394,-0.057421334
1757592590368,2.231396,-2.80361,4.960786,-0.021991149,-0.5131268,-0.018325957
1757592590388,2.3798366,-2.7006595,4.685453,-0.021991149,-0.5131268,-0.018325957
1757592590389,2.3798366,-2.7006595,4.685453,-0.010995574,-0.51068336,0.013439035
1757592590409,2.468422,-2.8874073,4.9775453,-0.010995574,-0.51068336,0.013439035
1757592590410,2.468422,-2.8874073,4.9775453,-0.111177474,-0.46792278,0.034208454
1757592590428,2.4875755,-3.2154129,5.1020436,-0.111177474,-0.46792278,0.034208454
1757592590429,2.4875755,-3.2154129,5.1020436,-0.28099802,-0.43004912,0.039095376
1757592590449,2.7126305,-3.5314474,5.1930237,-0.28099802,-0.43004912,0.039095376
1757592590450,2.7126305,-3.5314474,5.1930237,-0.34697145,-0.43493605,0.0720821
1757592590469,2.870648,-3.5458126,5.604826,-0.34697145,-0.43493605,0.0720821
1757592590470,2.870648,-3.5458126,5.604826,-0.37384954,-0.4728097,0.13194689
1757592590489,2.8395233,-3.86903,6.2368956,-0.37384954,-0.4728097,0.13194689
1757592590490,2.8395233,-3.86903,6.2368956,-0.41538838,-0.5204572,0.19058995
1757592590508,2.633622,-3.964798,6.64391,-0.41538838,-0.5204572,0.19058995
1757592590510,2.633622,-3.964798,6.64391,-0.4288274,-0.5510005,0.21624629
1757592590528,2.896984,-3.8881836,6.7229185,-0.4288274,-0.5510005,0.21624629
1757592590530,2.896984,-3.8881836,6.7229185,-0.40194935,-0.5681047,0.21868975
1757592590549,3.6583402,-3.7565024,6.777985,-0.40194935,-0.5681047,0.21868975
1757592590550,3.6583402,-3.7565024,6.777985,-0.32620203,-0.6096435,0.22968534
1757592590569,3.679888,-3.6487634,7.0844426,-0.32620203,-0.6096435,0.22968534
1757592590570,3.679888,-3.6487634,7.0844426,-0.27000242,-0.57787853,0.28099802
1757592590589,3.775656,-3.7732618,7.3047094,-0.27000242,-0.57787853,0.28099802
1757592590590,3.775656,-3.7732618,7.3047094,-0.3359759,-0.5656612,0.29810223
1757592590610,4.211401,-3.8259344,7.1131735,-0.3359759,-0.5656612,0.29810223
1757592590611,4.211401,-3.8259344,7.1131735,-0.5009095,-0.54733527,0.26389378
1757592590628,4.924873,-4.0414124,7.026982,-0.5009095,-0.54733527,0.26389378
1757592590629,4.924873,-4.0414124,7.026982,-0.54611355,-0.5216789,0.21868975
1757592590649,5.4683566,-4.2185836,7.21373,-0.54611355,-0.5216789,0.21868975
1757592590650,5.4683566,-4.2185836,7.21373,-0.47036624,-0.43982297,0.18570304
1757592590669,5.2241483,-3.9791632,7.443573,-0.47036624,-0.43982297,0.18570304
1757592590671,5.2241483,-3.9791632,7.443573,-0.33964106,-0.3286455,0.17104226
1757592590688,5.3127337,-3.857059,7.6734166,-0.33964106,-0.3286455,0.17104226
1757592590690,5.3127337,-3.857059,7.6734166,-0.23457226,-0.28344148,0.1966986
1757592590708,6.167464,-4.211401,7.93199,-0.23457226,-0.28344148,0.1966986
1757592590710,6.167464,-4.211401,7.93199,-0.22479841,-0.28344148,0.2125811
1757592590729,6.0046577,-5.1235914,8.3629465,-0.22479841,-0.28344148,0.2125811
1757592590730,6.0046577,-5.1235914,8.3629465,-0.19425514,-0.26511553,0.24556783
1757592590749,6.0477533,-5.5641246,8.475474,-0.19425514,-0.26511553,0.24556783
1757592590750,6.0477533,-5.5641246,8.475474,-0.21624629,-0.25900686,0.18203785
1757592590770,6.1243677,-5.482722,8.552089,-0.21624629,-0.25900686,0.18203785
1757592590771,6.1243677,-5.482722,8.552089,-0.19058995,-0.2602286,0.1685988
1757592590790,6.603208,-5.6239796,8.6813755,-0.19058995,-0.2602286,0.1685988
1757592590793,6.603208,-5.6239796,8.6813755,-0.23090707,-0.27977628,0.14172074
1757592590810,6.799533,-5.889736,8.7771435,-0.23090707,-0.27977628,0.14172074
1757592590811,6.799533,-5.889736,8.7771435,-0.2932153,-0.27122417,0.12217305
1757592590829,6.6486983,-6.327875,9.009381,-0.2932153,-0.27122417,0.12217305
1757592590830,6.6486983,-6.327875,9.009381,-0.28099802,-0.2321288,0.112399206
1757592590848,6.5481415,-6.409278,8.9519205,-0.28099802,-0.2321288,0.112399206
1757592590850,6.5481415,-6.409278,8.9519205,-0.23823744,-0.19058995,0.073303826
1757592590869,6.8330517,-6.3901243,8.995016,-0.23823744,-0.19058995,0.073303826
1757592590870,6.8330517,-6.3901243,8.995016,-0.12950343,-0.13194689,0.007330383
1757592590889,7.189788,-6.325481,9.552865,-0.12950343,-0.13194689,0.007330383
1757592590890,7.189788,-6.325481,9.552865,0.015882496,-0.06719518,0.014660766
1757592590909,7.2664022,-6.244078,9.876082,0.015882496,-0.06719518,0.014660766
1757592590911,7.2664022,-6.244078,9.876082,0.04886922,-0.02565634,0.05131268
1757592590929,7.575254,-6.8665705,9.902418,0.04886922,-0.02565634,0.05131268
1757592590930,7.575254,-6.8665705,9.902418,-0.017104227,-0.06352998,0.06963864
1757592590948,8.058883,-7.6231384,9.902418,-0.017104227,-0.06352998,0.06963864
1757592590950,8.058883,-7.6231384,9.902418,0.010995574,-0.09285152,0.07086037
1757592590970,8.042124,-7.929596,10.105926,0.010995574,-0.09285152,0.07086037
1757592590971,8.042124,-7.929596,10.105926,0.19792034,-0.030543262,0.04886922
1757592590990,7.9631147,-7.4627266,10.374076,0.19792034,-0.030543262,0.04886922
1757592590991,7.9631147,-7.4627266,10.374076,0.23823744,0.034208454,0.002443461
1757592591010,8.042124,-7.2065473,10.299856,0.23823744,0.034208454,0.002443461
1757592591011,8.042124,-7.2065473,10.299856,0.036651913,0.037873644,-0.035430185
1757592591030,8.279149,-7.4363904,10.383653,0.036651913,0.037873644,-0.035430185
1757592591032,8.279149,-7.4363904,10.383653,-0.18570304,0.008552114,-0.043982297
1757592591048,7.9224133,-7.524976,10.627861,-0.18570304,0.008552114,-0.043982297
1757592591050,7.9224133,-7.524976,10.627861,-0.204029,0.09773844,-0.037873644
1757592591070,7.627927,-7.723695,10.685322,-0.204029,0.09773844,-0.037873644
1757592591072,7.627927,-7.723695,10.685322,-0.15027285,0.14294247,-0.059864793
1757592591090,7.4627266,-7.644686,10.536881,-0.15027285,0.14294247,-0.059864793
1757592591091,7.4627266,-7.644686,10.536881,-0.028099801,0.1685988,-0.080634214
1757592591110,7.4268136,-7.374141,10.364499,-0.028099801,0.1685988,-0.080634214
1757592591111,7.4268136,-7.374141,10.364499,0.07452556,0.16126843,-0.09773844
1757592591130,7.347805,-7.141904,10.086772,0.07452556,0.16126843,-0.09773844
1757592591131,7.347805,-7.141904,10.086772,0.12950343,0.15882497,-0.11484267
1757592591149,7.1131735,-6.811504,9.957485,0.12950343,0.15882497,-0.11484267
1757592591150,7.1131735,-6.811504,9.957485,0.21502456,0.21135938,-0.12339478
1757592591170,6.9120603,-6.64391,9.880871,0.21502456,0.21135938,-0.12339478
1757592591172,6.9120603,-6.64391,9.880871,0.2968805,0.25289822,-0.10873401
1757592591190,6.967127,-6.895301,9.543288,0.2968805,0.25289822,-0.10873401
1757592591191,6.967127,-6.895301,9.543288,0.344528,0.2443461,-0.1001819
1757592591208,6.9048777,-6.777985,9.109938,0.344528,0.2443461,-0.1001819
1757592591210,6.9048777,-6.777985,9.109938,0.4569272,0.28221974,-0.12339478
1757592591230,6.591237,-6.3206925,8.892065,0.4569272,0.28221974,-0.12339478
1757592591232,6.591237,-6.3206925,8.892065,0.5009095,0.34330627,-0.14294247
1757592591249,6.339846,-5.853823,8.9519205,0.5009095,0.34330627,-0.14294247
1757592591250,6.339846,-5.853823,8.9519205,0.49235737,0.35918877,-0.1441642
1757592591270,6.208165,-5.6359506,8.9279785,0.49235737,0.35918877,-0.1441642
1757592591272,6.208165,-5.6359506,8.9279785,0.48624873,0.37507126,-0.14049901
1757592591290,6.0836663,-5.4204726,8.688558,0.48624873,0.37507126,-0.14049901
1757592591291,6.0836663,-5.4204726,8.688558,0.49113566,0.39706242,-0.13316862
1757592591310,5.853823,-5.2600613,8.508993,0.49113566,0.39706242,-0.13316862
1757592591311,5.853823,-5.2600613,8.508993,0.46914452,0.453262,-0.13927728
1757592591330,5.5641246,-5.351041,8.62152,0.46914452,0.453262,-0.13927728
1757592591331,5.5641246,-5.351041,8.62152,0.453262,0.5204572,-0.15027285
1757592591349,5.2863975,-5.1690817,8.664616,0.453262,0.5204572,-0.15027285
1757592591350,5.2863975,-5.1690817,8.664616,0.54244834,0.5766568,-0.16249016
1757592591371,5.073313,-4.735731,8.6095495,0.54244834,0.5766568,-0.16249016
1757592591372,5.073313,-4.735731,8.6095495,0.81245077,0.6585127,-0.14049901
1757592591390,4.5753193,-4.19943,8.303091,0.81245077,0.6585127,-0.14049901
1757592591391,4.5753193,-4.19943,8.303091,0.89675015,0.689056,-0.1282817
1757592591410,4.3646297,-4.0821137,7.9822683,0.89675015,0.689056,-0.1282817
1757592591411,4.3646297,-4.0821137,7.9822683,0.94806284,0.6976081,-0.111177474
1757592591430,4.2425256,-3.7373488,7.608773,0.94806284,0.6976081,-0.111177474
1757592591432,4.2425256,-3.7373488,7.608773,1.0152581,0.70249504,-0.09773844
1757592591449,4.1635165,-3.4979286,7.3310456,1.0152581,0.70249504,-0.09773844
1757592591451,4.1635165,-3.4979286,7.3310456,1.0922271,0.72326446,-0.080634214
1757592591471,3.763685,-3.1435869,7.132327,1.0922271,0.72326446,-0.080634214
1757592591472,3.763685,-3.1435869,7.132327,1.128879,0.7464773,-0.062308256
1757592591490,3.2992098,-2.5450363,6.7923503,1.128879,0.7464773,-0.062308256
1757592591492,3.2992098,-2.5450363,6.7923503,1.1117748,0.75502944,-0.043982297
1757592591510,3.1148565,-1.8818425,6.4188547,1.1117748,0.75502944,-0.043982297
1757592591512,3.1148565,-1.8818425,6.4188547,1.0800097,0.7293731,-0.009773844
1757592591530,2.8395233,-1.5251064,6.0405707,1.0800097,0.7293731,-0.009773844
1757592591532,2.8395233,-1.5251064,6.0405707,1.0396926,0.70371675,0.017104227
1757592591549,2.4157495,-0.94092125,5.705383,1.0396926,0.70371675,0.017104227
1757592591551,2.4157495,-0.94092125,5.705383,0.96761054,0.625526,0.036651913
1757592591571,2.0207062,-0.6607997,5.482722,0.96761054,0.625526,0.036651913
1757592591572,2.0207062,-0.6607997,5.482722,0.9016371,0.5705481,0.061086524
1757592591589,1.7549498,-0.5386954,5.011064,0.9016371,0.5705481,0.061086524
1757592591591,1.7549498,-0.5386954,5.011064,0.84665924,0.47769663,0.061086524
1757592591611,1.7046716,-0.46686932,4.663905,0.84665924,0.47769663,0.061086524
1757592591612,1.7046716,-0.46686932,4.663905,0.82711154,0.39828414,0.056199603
1757592591631,1.6328455,-0.34237084,4.1922474,0.82711154,0.39828414,0.056199603
1757592591632,1.6328455,-0.34237084,4.1922474,0.7415904,0.32986724,0.052534413
1757592591650,1.5921441,-0.62249243,3.6463692,0.7415904,0.32986724,0.052534413
1757592591651,1.5921441,-0.62249243,3.6463692,0.5925393,0.28344148,0.043982297
1757592591670,1.745373,-0.9624691,3.3375173,0.5925393,0.28344148,0.043982297
1757592591671,1.745373,-0.9624691,3.3375173,0.5412266,0.28099802,0.029321533
1757592591689,1.9967642,-0.91219085,3.25372,0.5412266,0.28099802,0.029321533
1757592591691,1.9967642,-0.91219085,3.25372,0.6230826,0.35185838,0.004886922
1757592591709,1.7166426,-0.33279404,3.7900212,0.6230826,0.35185838,0.004886922
1757592591711,1.7166426,-0.33279404,3.7900212,0.689056,0.45448375,-0.028099801
1757592591731,1.7142484,0.16759412,5.291186,0.689056,0.45448375,-0.028099801
1757592591733,1.7142484,0.16759412,5.291186,0.344528,0.4972443,-0.040317107
1757592591750,1.5562311,0.21787235,6.4882865,0.344528,0.4972443,-0.040317107
1757592591751,1.5562311,0.21787235,6.4882865,0.18448131,0.48624873,-0.036651913
1757592591771,1.5969325,0.48841715,7.1275387,0.18448131,0.48624873,-0.036651913
1757592591773,1.5969325,0.48841715,7.1275387,0.2003638,0.45448375,-0.015882496
1757592591791,2.0829554,0.8571242,7.747637,0.2003638,0.45448375,-0.015882496
1757592591792,2.0829554,0.8571242,7.747637,0.22479841,0.34574974,0.009773844
1757592591808,2.2266076,1.1061212,8.808268,0.22479841,0.34574974,0.009773844
1757592591809,2.2266076,1.1061212,8.808268,0.22724187,0.2773328,0.028099801
1757592591830,1.8387469,0.94331545,9.605537,0.22724187,0.2773328,0.028099801
1757592591832,1.8387469,0.94331545,9.605537,0.119729586,0.22235495,0.056199603
1757592591849,1.8267759,0.30166942,9.461885,0.119729586,0.22235495,0.056199603
1757592591852,1.8267759,0.30166942,9.461885,-0.1685988,0.089186326,0.07086037
1757592591871,2.4540567,-0.45489833,9.114726,-0.1685988,0.089186326,0.07086037
1757592591873,2.4540567,-0.45489833,9.114726,-0.3567453,-0.035430185,0.009773844
1757592591891,2.6886885,-0.8451532,8.947132,-0.3567453,-0.035430185,0.009773844
1757592591892,2.6886885,-0.8451532,8.947132,-0.25778514,-0.043982297,-0.05009095
1757592591911,2.4899697,-0.9840169,9.054871,-0.25778514,-0.043982297,-0.05009095
1757592591912,2.4899697,-0.9840169,9.054871,-0.13194689,0.012217305,-0.05009095
1757592591930,2.099715,-0.6560113,9.385271,-0.13194689,0.012217305,-0.05009095
1757592591932,2.099715,-0.6560113,9.385271,-0.08307768,0.058643065,-0.07941248
1757592591950,1.6567876,-0.45010993,9.363723,-0.08307768,0.058643065,-0.07941248
1757592591951,1.6567876,-0.45010993,9.363723,-0.08307768,0.047647487,-0.07574729
1757592591971,1.2138603,-0.34237084,9.006987,-0.08307768,0.047647487,-0.07574729
1757592591973,1.2138603,-0.34237084,9.006987,-0.081855945,-0.036651913,-0.02321288
1757592591991,0.830788,-0.37110126,8.6095495,-0.081855945,-0.036651913,-0.02321288
1757592591993,0.830788,-0.37110126,8.6095495,-0.061086524,-0.14049901,0.032986723
1757592592011,0.6703765,-0.47644615,8.192958,-0.061086524,-0.14049901,0.032986723
1757592592012,0.6703765,-0.47644615,8.192958,-0.017104227,-0.22602014,0.08307768
1757592592031,0.78769237,-0.61530983,7.5704656,-0.017104227,-0.22602014,0.08307768
1757592592032,0.78769237,-0.61530983,7.5704656,0.05375614,-0.2932153,0.12217305
1757592592050,0.5410896,-0.59376204,6.9958572,0.05375614,-0.2932153,0.12217305
1757592592051,0.5410896,-0.59376204,6.9958572,0.18325958,-0.30298916,0.16249016
1757592592071,0.45489833,-0.50278234,6.88333,0.18325958,-0.30298916,0.16249016
1757592592072,0.45489833,-0.50278234,6.88333,0.15149458,-0.28221974,0.18325958
1757592592091,0.6943185,-0.320823,6.670246,0.15149458,-0.28221974,0.18325958
1757592592093,0.6943185,-0.320823,6.670246,-0.013439035,-0.27000242,0.18692477
1757592592111,1.0342951,-0.51954174,6.423643,-0.013439035,-0.27000242,0.18692477
1757592592113,1.0342951,-0.51954174,6.423643,-0.16371189,-0.2724459,0.17715092
1757592592131,1.3000516,-0.6368576,6.117185,-0.16371189,-0.2724459,0.17715092
1757592592133,1.3000516,-0.6368576,6.117185,-0.18570304,-0.2443461,0.16249016
1757592592149,1.5059528,-0.40462008,6.3542113,-0.18570304,-0.2443461,0.16249016
1757592592150,1.5059528,-0.40462008,6.3542113,-0.19181168,-0.1685988,0.1282817
1757592592171,1.721431,-0.4405331,6.2991447,-0.19181168,-0.1685988,0.1282817
1757592592172,1.721431,-0.4405331,6.2991447,-0.30298916,-0.043982297,0.035430185
1757592592191,1.7190368,-0.5746084,6.5481415,-0.30298916,-0.043982297,0.035430185
1757592592193,1.7190368,-0.5746084,6.5481415,-0.27366763,0.05009095,-0.05375614
1757592592211,1.3814543,-0.5482722,6.612785,-0.27366763,0.05009095,-0.05375614
1757592592213,1.3814543,-0.5482722,6.612785,-0.080634214,0.08552113,-0.09773844
1757592592231,2.219425,-0.37349546,6.567295,-0.080634214,0.08552113,-0.09773844
1757592592233,2.219425,-0.37349546,6.567295,-0.015882496,0.02687807,-0.1282817
1757592592251,2.930503,-0.7589619,6.411672,-0.015882496,0.02687807,-0.1282817
1757592592253,2.930503,-0.7589619,6.411672,0.042760566,0.04520403,-0.08552113
1757592592271,2.791639,-1.1875241,6.5840545,0.042760566,0.04520403,-0.08552113
1757592592272,2.791639,-1.1875241,6.5840545,0.2321288,0.16982053,-0.06841691
1757592592291,2.5594015,-0.9864111,7.1490865,0.2321288,0.16982053,-0.06841691
1757592592293,2.5594015,-0.9864111,7.1490865,0.2968805,0.2602286,-0.09285152
1757592592311,2.231396,-0.8690952,7.860164,0.2968805,0.2602286,-0.09285152
1757592592313,2.231396,-0.8690952,7.860164,0.21135938,0.26511553,-0.09162979
1757592592332,2.087744,-0.7086837,8.298303,0.21135938,0.26511553,-0.09162979
1757592592334,2.087744,-0.7086837,8.298303,0.037873644,0.19303341,-0.1160644
1757592592349,2.315193,-0.830788,8.281544,0.037873644,0.19303341,-0.1160644
1757592592349,2.315193,-0.830788,8.281544,-0.042760566,0.10140363,-0.11362094
1757592592370,2.8323407,-1.0342951,8.312668,-0.042760566,0.10140363,-0.11362094
1757592592371,2.8323407,-1.0342951,8.312668,0.0012217305,0.08552113,-0.07086037
1757592592389,2.7964275,-1.412579,8.961497,0.0012217305,0.08552113,-0.07086037
1757592592390,2.7964275,-1.412579,8.961497,0.16249016,0.19914207,-0.043982297
1757592592409,3.0597897,-1.5921441,9.040505,0.16249016,0.19914207,-0.043982297
1757592592410,3.0597897,-1.5921441,9.040505,0.059864793,0.2761111,-0.06963864
1757592592428,3.560178,-1.7405846,9.363723,0.059864793,0.2761111,-0.06963864
1757592592429,3.560178,-1.7405846,9.363723,-0.10751228,0.31398472,-0.12095132
1757592592449,3.3734303,-1.6496049,9.785102,-0.10751228,0.31398472,-0.12095132
1757592592450,3.3734303,-1.6496049,9.785102,-0.036651913,0.3408628,-0.1441642
1757592592469,2.8682537,-1.1133038,10.316615,-0.036651913,0.3408628,-0.1441642
1757592592470,2.8682537,-1.1133038,10.316615,0.10751228,0.3115413,-0.119729586
1757592592488,2.4420857,-0.6584055,10.819398,0.10751228,0.3115413,-0.119729586
1757592592489,2.4420857,-0.6584055,10.819398,0.07819075,0.24923302,-0.112399206
1757592592507,2.4492683,-0.60333884,11.135432,0.07819075,0.24923302,-0.112399206
1757592592507,2.4492683,-0.60333884,11.135432,-0.058643065,0.172264,-0.09407325
1757592592528,2.8083985,-1.0414777,11.456255,-0.058643065,0.172264,-0.09407325
1757592592528,2.8083985,-1.0414777,11.456255,-0.17104226,0.06963864,-0.065973446
1757592592547,3.2441432,-1.8387469,11.81778,-0.17104226,0.06963864,-0.065973446
1757592592547,3.2441432,-1.8387469,11.81778,-0.12950343,0.002443461,-0.059864793
1757592592568,3.6032736,-2.0446482,12.595895,-0.12950343,0.002443461,-0.059864793
1757592592569,3.6032736,-2.0446482,12.595895,0.065973446,-0.013439035,-0.05131268
1757592592588,3.6535518,-1.7549498,12.497733,0.065973446,-0.013439035,-0.05131268
1757592592589,3.6535518,-1.7549498,12.497733,0.13072516,-0.043982297,-0.1001819
1757592592607,3.4835634,-1.328782,12.512098,0.13072516,-0.043982297,-0.1001819
1757592592608,3.4835634,-1.328782,12.512098,0.13561209,-0.04520403,-0.13561209
1757592592629,3.157952,-1.30484,12.995727,0.13561209,-0.04520403,-0.13561209
1757592592630,3.157952,-1.30484,12.995727,0.015882496,-0.002443461,-0.172264
1757592592649,3.3207579,-1.3934253,13.543999,0.015882496,-0.002443461,-0.172264
1757592592650,3.3207579,-1.3934253,13.543999,-0.057421334,0.035430185,-0.18081611
1757592592669,3.5936968,-1.3910311,13.857639,-0.057421334,0.035430185,-0.18081611
1757592592670,3.5936968,-1.3910311,13.857639,-0.06352998,0.07696902,-0.13927728
1757592592689,3.5769374,-1.5346833,13.917495,-0.06352998,0.07696902,-0.13927728
1757592592690,3.5769374,-1.5346833,13.917495,-0.13194689,0.10629055,-0.089186326
1757592592709,3.550601,-2.3630772,13.953407,-0.13194689,0.10629055,-0.089186326
1757592592711,3.550601,-2.3630772,13.953407,-0.24923302,0.04520403,-0.073303826
1757592592731,3.41892,-2.7341783,14.106636,-0.24923302,0.04520403,-0.073303826
1757592592733,3.41892,-2.7341783,14.106636,-0.20769419,-0.0036651916,-0.119729586
1757592592751,3.478775,-2.111686,14.094666,-0.20769419,-0.0036651916,-0.119729586
1757592592753,3.478775,-2.111686,14.094666,-0.11484267,-0.014660766,-0.12461651
1757592592772,3.6535518,-2.0278888,14.00608,-0.11484267,-0.014660766,-0.12461651
1757592592773,3.6535518,-2.0278888,14.00608,-0.12095132,-0.010995574,-0.12339478
1757592592791,3.3806129,-2.2457612,14.1425495,-0.12095132,-0.010995574,-0.12339478
1757592592793,3.3806129,-2.2457612,14.1425495,-0.09773844,0.04642576,-0.12095132
1757592592811,3.2034419,-1.9871874,14.401123,-0.09773844,0.04642576,-0.12095132
1757592592813,3.2034419,-1.9871874,14.401123,-0.0012217305,0.11362094,-0.118507855
1757592592831,3.2082303,-1.6950948,14.408306,-0.0012217305,0.11362094,-0.118507855
1757592592832,3.2082303,-1.6950948,14.408306,0.06963864,0.14294247,-0.11728613
1757592592849,3.2632968,-1.7286136,14.211981,0.06963864,0.14294247,-0.11728613
1757592592850,3.2632968,-1.7286136,14.211981,0.12095132,0.13194689,-0.111177474
1757592592874,2.9352913,-1.6879122,13.977349,0.12095132,0.13194689,-0.111177474
1757592592876,2.9352913,-1.6879122,13.977349,0.19914207,0.17592919,-0.081855945
1757592592891,2.552219,-1.3096284,13.821727,0.19914207,0.17592919,-0.081855945
1757592592893,2.552219,-1.3096284,13.821727,0.20647246,0.20891592,-0.064751714
1757592592912,2.753332,-1.5610195,13.378799,0.20647246,0.20891592,-0.064751714
1757592592914,2.753332,-1.5610195,13.378799,0.13927728,0.14782938,-0.064751714
1757592592933,2.9903579,-1.8483237,12.919112,0.13927728,0.14782938,-0.064751714
1757592592934,2.9903579,-1.8483237,12.919112,0.1881465,0.15027285,-0.04642576
1757592592952,2.8778305,-1.9800048,12.430696,0.1881465,0.15027285,-0.04642576
1757592592954,2.8778305,-1.9800048,12.430696,0.26389378,0.1966986,-0.065973446
1757592592973,2.6862943,-1.6400281,12.334928,0.26389378,0.1966986,-0.065973446
1757592592974,2.6862943,-1.6400281,12.334928,0.3371976,0.24678956,-0.09285152
1757592592991,2.6862943,-1.292869,12.26789,0.3371976,0.24678956,-0.09285152
1757592592993,2.6862943,-1.292869,12.26789,0.39828414,0.28588495,-0.10262536
1757592593012,2.8179753,-1.0845734,12.073959,0.39828414,0.28588495,-0.10262536
1757592593013,2.8179753,-1.0845734,12.073959,0.4202753,0.2773328,-0.09773844
1757592593032,2.9472623,-0.9959879,11.777079,0.4202753,0.2773328,-0.09773844
1757592593034,2.9472623,-0.9959879,11.777079,0.40561453,0.25900686,-0.073303826
1757592593053,2.717419,-0.9528923,11.640609,0.40561453,0.25900686,-0.073303826
1757592593054,2.717419,-0.9528923,11.640609,0.39950588,0.25778514,-0.065973446
1757592593073,2.3056161,-0.79487497,11.295844,0.39950588,0.25778514,-0.065973446
1757592593074,2.3056161,-0.79487497,11.295844,0.39095375,0.27488935,-0.089186326
1757592593091,2.360683,-0.58657944,10.8624935,0.39095375,0.27488935,-0.089186326
1757592593094,2.360683,-0.58657944,10.8624935,0.39584067,0.2968805,-0.10262536
1757592593111,2.5187001,-0.31124622,10.6398325,0.39584067,0.2968805,-0.10262536
1757592593113,2.5187001,-0.31124622,10.6398325,0.408058,0.34574974,-0.12339478
1757592593132,2.0494366,-0.17238252,10.5919485,0.408058,0.34574974,-0.12339478
1757592593134,2.0494366,-0.17238252,10.5919485,0.38973203,0.40439278,-0.13927728
1757592593152,1.7190368,-0.31124622,10.390836,0.38973203,0.40439278,-0.13927728
1757592593154,1.7190368,-0.31124622,10.390836,0.36774087,0.43127087,-0.15760323
1757592593173,1.8938135,-0.22744916,9.991004,0.36774087,0.43127087,-0.15760323
1757592593174,1.8938135,-0.22744916,9.991004,0.38240165,0.4251622,-0.18081611
1757592593191,1.9632454,-0.019153614,9.471462,0.38240165,0.4251622,-0.18081611
1757592593193,1.9632454,-0.019153614,9.471462,0.43004912,0.45814893,-0.18570304
1757592593212,1.6543933,0.24899697,9.076419,0.43004912,0.45814893,-0.18570304
1757592593214,1.6543933,0.24899697,9.076419,0.46914452,0.49968776,-0.17959438
1757592593233,1.4820108,0.5243302,8.379706,0.46914452,0.49968776,-0.17959438
1757592593234,1.4820108,0.5243302,8.379706,0.48502702,0.516792,-0.1685988
1757592593253,1.340753,0.60333884,7.7093296,0.48502702,0.516792,-0.1685988
1757592593254,1.340753,0.60333884,7.7093296,0.43371433,0.5009095,-0.15515977
1757592593273,0.9672575,0.60094464,7.2328835,0.43371433,0.5009095,-0.15515977
1757592593274,0.9672575,0.60094464,7.2328835,0.39461896,0.4654793,-0.119729586
1757592593292,0.63206923,0.51235914,7.0126166,0.39461896,0.4654793,-0.119729586
1757592593293,0.63206923,0.51235914,7.0126166,0.3726278,0.42394048,-0.09040806
1757592593313,0.7158663,0.46926352,6.603208,0.3726278,0.42394048,-0.09040806
1757592593314,0.7158663,0.46926352,6.603208,0.37384954,0.36285394,-0.07819075
1757592593333,0.8523358,0.60573304,6.184223,0.37384954,0.36285394,-0.07819075
1757592593334,0.8523358,0.60573304,6.184223,0.36163223,0.3359759,-0.061086524
1757592593353,0.5674258,0.6703765,5.793968,0.36163223,0.3359759,-0.061086524
1757592593353,0.5674258,0.6703765,5.793968,0.3005457,0.3213151,-0.042760566
1757592593374,0.16998832,0.5626374,5.7269306,0.3005457,0.3213151,-0.042760566
1757592593376,0.16998832,0.5626374,5.7269306,0.20280726,0.30909783,-0.02565634
1757592593392,-0.033518825,0.45250413,5.765238,0.20280726,0.30909783,-0.02565634
1757592593394,-0.033518825,0.45250413,5.765238,0.18692477,0.312763,-0.02321288
1757592593413,0.21787235,0.61530983,5.5760956,0.18692477,0.312763,-0.02321288
1757592593414,0.21787235,0.61530983,5.5760956,0.32620203,0.27000242,-0.002443461
1757592593433,0.16519992,0.7757214,5.580884,0.32620203,0.27000242,-0.002443461
1757592593434,0.16519992,0.7757214,5.580884,0.44715336,0.26145032,0.05131268
1757592593453,0.050278235,1.0606314,5.753267,0.44715336,0.26145032,0.05131268
1757592593455,0.050278235,1.0606314,5.753267,0.44715336,0.2565634,0.09773844
1757592593473,0.033518825,1.2354081,5.8945246,0.44715336,0.2565634,0.09773844
1757592593474,0.033518825,1.2354081,5.8945246,0.35796702,0.2443461,0.112399206
1757592593492,0.15083471,1.2617443,5.853823,0.35796702,0.2443461,0.112399206
1757592593494,0.15083471,1.2617443,5.853823,0.25778514,0.21013765,0.10751228
1757592593513,0.18914193,1.3024458,5.9064956,0.25778514,0.21013765,0.10751228
1757592593514,0.18914193,1.3024458,5.9064956,0.22357668,0.2284636,0.09896017
1757592593533,-0.031124622,1.3263878,6.3206925,0.22357668,0.2284636,0.09896017
1757592593534,-0.031124622,1.3263878,6.3206925,0.23945917,0.27366763,0.103847094
1757592593553,-0.23702596,1.5107412,6.7851677,0.23945917,0.27366763,0.103847094
1757592593554,-0.23702596,1.5107412,6.7851677,0.25167647,0.30176744,0.111177474
1757592593574,-0.7278373,1.8411411,7.1371155,0.25167647,0.30176744,0.111177474
1757592593575,-0.7278373,1.8411411,7.1371155,0.13683382,0.23701571,0.15149458
1757592593593,-0.6943185,1.7956513,7.2544312,0.13683382,0.23701571,0.15149458
1757592593594,-0.6943185,1.7956513,7.2544312,-0.03176499,0.12583824,0.17348573
1757592593612,-0.5770026,1.6639702,7.467515,-0.03176499,0.12583824,0.17348573
1757592593614,-0.5770026,1.6639702,7.467515,-0.18570304,0.021991149,0.16371189
1757592593633,-0.31364042,1.541866,7.675811,-0.18570304,0.021991149,0.16371189
1757592593635,-0.31364042,1.541866,7.675811,-0.2846632,-0.04153884,0.14782938
1757592593653,-0.107739076,1.5346833,7.9272017,-0.2846632,-0.04153884,0.14782938
1757592593654,-0.107739076,1.5346833,7.9272017,-0.32253686,-0.07819075,0.13072516
1757592593674,-0.17238252,1.7166426,8.200141,-0.32253686,-0.07819075,0.13072516
1757592593675,-0.17238252,1.7166426,8.200141,-0.3555236,-0.103847094,0.111177474
1757592593694,-0.076614454,1.6400281,8.497022,-0.3555236,-0.103847094,0.111177474
1757592593695,-0.076614454,1.6400281,8.497022,-0.43860126,-0.15149458,0.09040806
1757592593712,-0.12689269,1.4508862,8.480263,-0.43860126,-0.15149458,0.09040806
1757592593714,-0.12689269,1.4508862,8.480263,-0.48502702,-0.19914207,0.0842994
1757592593733,-0.02873042,1.4580688,8.303091,-0.48502702,-0.19914207,0.0842994
1757592593734,-0.02873042,1.4580688,8.303091,-0.4813618,-0.26267207,0.089186326
1757592593751,0.21308395,1.3239936,7.9463553,-0.4813618,-0.26267207,0.089186326
1757592593753,0.21308395,1.3239936,7.9463553,-0.48258355,-0.3359759,0.10629055
1757592593773,0.18195933,1.0654198,7.702147,-0.48258355,-0.3359759,0.10629055
1757592593774,0.18195933,1.0654198,7.702147,-0.5045747,-0.37140608,0.10751228
1757592593793,-0.05746084,0.6823475,7.419631,-0.5045747,-0.37140608,0.10751228
1757592593795,-0.05746084,0.6823475,7.419631,-0.4801401,-0.3811799,0.087964594
1757592593813,0.009576807,0.5291186,7.141904,-0.4801401,-0.3811799,0.087964594
1757592593814,0.009576807,0.5291186,7.141904,-0.4361578,-0.39095375,0.05375614
1757592593834,0.1388637,0.58657944,6.8929067,-0.4361578,-0.39095375,0.05375614
1757592593836,0.1388637,0.58657944,6.8929067,-0.39828414,-0.408058,0.004886922
1757592593854,0.45250413,0.48841715,6.603208,-0.39828414,-0.408058,0.004886922
1757592593855,0.45250413,0.48841715,6.603208,-0.37995818,-0.41538838,-0.035430185
1757592593873,0.81642276,0.16759412,6.375759,-0.37995818,-0.41538838,-0.035430185
1757592593875,0.81642276,0.16759412,6.375759,-0.36163223,-0.40683624,-0.042760566
1757592593893,0.91458505,0.19871874,6.3925185,-0.36163223,-0.40683624,-0.042760566
1757592593894,0.91458505,0.19871874,6.3925185,-0.3286455,-0.38362336,-0.059864793
1757592593911,0.9576807,0.31124622,6.5481415,-0.3286455,-0.38362336,-0.059864793
1757592593913,0.9576807,0.31124622,6.5481415,-0.34697145,-0.3885103,-0.05009095
1757592593932,1.0821792,0.15801731,6.6175733,-0.34697145,-0.3885103,-0.05009095
1757592593934,1.0821792,0.15801731,6.6175733,-0.41538838,-0.41172317,-0.05375614
1757592593953,0.9768343,-0.047884032,7.1754227,-0.41538838,-0.41172317,-0.05375614
1757592593954,0.9768343,-0.047884032,7.1754227,-0.4202753,-0.37751472,-0.064751714
1757592593973,0.9528923,-0.4141969,7.4723034,-0.4202753,-0.37751472,-0.064751714
1757592593974,0.9528923,-0.4141969,7.4723034,-0.38362336,-0.3359759,-0.09040806
1757592593993,1.2162545,-0.59855044,7.762002,-0.38362336,-0.3359759,-0.09040806
1757592593994,1.2162545,-0.59855044,7.762002,-0.31398472,-0.31031954,-0.089186326
1757592594013,1.1827357,-0.11971009,8.341399,-0.31398472,-0.31031954,-0.089186326
1757592594014,1.1827357,-0.11971009,8.341399,-0.25534168,-0.26145032,-0.06719518
1757592594033,0.8595184,-0.04070143,8.944737,-0.25534168,-0.26145032,-0.06719518
1757592594034,0.8595184,-0.04070143,8.944737,-0.3042109,-0.25045475,-0.04642576
1757592594053,0.6631939,-0.50757074,9.28232,-0.3042109,-0.25045475,-0.04642576
1757592594055,0.6631939,-0.50757074,9.28232,-0.3567453,-0.2846632,-0.05375614
1757592594074,0.9624691,-0.35913026,9.646238,-0.3567453,-0.2846632,-0.05375614
1757592594075,0.9624691,-0.35913026,9.646238,-0.30176744,-0.29443705,-0.07574729
1757592594094,1.1372458,-0.6512229,9.76116,-0.30176744,-0.29443705,-0.07574729
1757592594096,1.1372458,-0.6512229,9.76116,-0.3005457,-0.28588495,-0.06963864
1757592594113,1.4652514,-0.8834604,9.722853,-0.3005457,-0.28588495,-0.06963864
1757592594115,1.4652514,-0.8834604,9.722853,-0.23457226,-0.25045475,-0.040317107
1757592594134,1.4389153,-0.6368576,9.967062,-0.23457226,-0.25045475,-0.040317107
1757592594136,1.4389153,-0.6368576,9.967062,-0.06352998,-0.17592919,-0.004886922
1757592594153,1.3623008,-0.48602295,10.048465,-0.06352998,-0.17592919,-0.004886922
1757592594155,1.3623008,-0.48602295,10.048465,0.065973446,-0.14660765,0.04153884
1757592594174,1.5801731,-0.4237737,10.42196,0.065973446,-0.14660765,0.04153884
1757592594175,1.5801731,-0.4237737,10.42196,0.1282817,-0.18203785,0.07819075
1757592594194,1.6807296,-0.4357447,10.271125,0.1282817,-0.18203785,0.07819075
1757592594196,1.6807296,-0.4357447,10.271125,0.15027285,-0.19425514,0.12095132
1757592594213,1.7310078,-0.7613561,10.340557,0.15027285,-0.19425514,0.12095132
1757592594215,1.7310078,-0.7613561,10.340557,0.13683382,-0.21868975,0.14905111
1757592594234,1.8028339,-0.9888053,10.261548,0.13683382,-0.21868975,0.14905111
1757592594236,1.8028339,-0.9888053,10.261548,0.07574729,-0.2284636,0.14905111
1757592594253,2.2098482,-1.1013328,10.342952,0.07574729,-0.2284636,0.14905111
1757592594254,2.2098482,-1.1013328,10.342952,0.008552114,-0.28099802,0.12217305
1757592594273,2.2840683,-1.0247183,10.649409,0.008552114,-0.28099802,0.12217305
1757592594274,2.2840683,-1.0247183,10.649409,-0.06963864,-0.24556783,0.073303826
1757592594294,2.2577322,-1.0103531,11.087548,-0.06963864,-0.24556783,0.073303826
1757592594296,2.2577322,-1.0103531,11.087548,-0.1966986,-0.21502456,0.02687807
1757592594314,2.4779987,-1.1947067,11.20247,-0.1966986,-0.21502456,0.02687807
1757592594315,2.4779987,-1.1947067,11.20247,-0.27855456,-0.2443461,0.0061086523
1757592594334,2.7102363,-1.3072342,11.68131,-0.27855456,-0.2443461,0.0061086523
1757592594336,2.7102363,-1.3072342,11.68131,-0.22968534,-0.26267207,0.014660766
1757592594354,2.9376855,-0.90021986,12.095507,-0.22968534,-0.26267207,0.014660766
1757592594356,2.9376855,-0.90021986,12.095507,-0.14049901,-0.24801129,-0.009773844
1757592594374,2.8419175,-0.45010993,12.6222315,-0.14049901,-0.24801129,-0.009773844
1757592594376,2.8419175,-0.45010993,12.6222315,-0.119729586,-0.24923302,-0.018325957
1757592594394,3.074155,-0.38067806,12.978968,-0.119729586,-0.24923302,-0.018325957
1757592594396,3.074155,-0.38067806,12.978968,-0.18936823,-0.2883284,-0.004886922
1757592594414,3.4931402,-1.3335704,13.278243,-0.18936823,-0.2883284,-0.004886922
1757592594415,3.4931402,-1.3335704,13.278243,-0.30665436,-0.25900686,0.014660766
1757592594434,3.4524388,-1.6711528,13.508086,-0.30665436,-0.25900686,0.014660766
1757592594436,3.4524388,-1.6711528,13.508086,-0.27855456,-0.18570304,0.007330383
1757592594455,3.6463692,-1.7741034,13.8241205,-0.27855456,-0.18570304,0.007330383
1757592594456,3.6463692,-1.7741034,13.8241205,-0.24190263,-0.17592919,-0.030543262
1757592594474,3.5075054,-1.8004397,14.377181,-0.24190263,-0.17592919,-0.030543262
1757592594476,3.5075054,-1.8004397,14.377181,-0.19914207,-0.13194689,-0.05131268
1757592594494,3.2034419,-1.7501614,14.853627,-0.19914207,-0.13194689,-0.05131268
1757592594496,3.2034419,-1.7501614,14.853627,-0.09162979,-0.05009095,-0.052534413
1757592594514,3.1196449,-1.5514427,14.985309,-0.09162979,-0.05009095,-0.052534413
1757592594515,3.1196449,-1.5514427,14.985309,0.02565634,-0.009773844,-0.028099801
1757592594534,3.1028855,-1.3239936,14.683639,0.02565634,-0.009773844,-0.028099801
1757592594536,3.1028855,-1.3239936,14.683639,0.089186326,0.0012217305,-0.018325957
1757592594554,3.3087866,-1.5466543,14.353239,0.089186326,0.0012217305,-0.018325957
1757592594556,3.3087866,-1.5466543,14.353239,0.14049901,-0.0012217305,-0.02076942
1757592594574,3.5745432,-1.5873557,14.109031,0.14049901,-0.0012217305,-0.02076942
1757592594575,3.5745432,-1.5873557,14.109031,0.3885103,0.10140363,0.008552114
1757592594595,3.5242648,-1.0223241,14.147338,0.3885103,0.10140363,0.008552114
1757592594596,3.5242648,-1.0223241,14.147338,0.4361578,0.18936823,0.004886922
1757592594615,3.53863,-0.9696517,14.20001,0.4361578,0.18936823,0.004886922
1757592594616,3.53863,-0.9696517,14.20001,0.37751472,0.24801129,-0.03176499
1757592594634,3.2273839,-0.49081135,13.986926,0.37751472,0.24801129,-0.03176499
1757592594636,3.2273839,-0.49081135,13.986926,0.37873647,0.30543262,-0.032986723
1757592594654,2.7940333,-0.47165772,13.852851,0.37873647,0.30543262,-0.032986723
1757592594656,2.7940333,-0.47165772,13.852851,0.3213151,0.33964106,-0.02565634
1757592594675,2.9712043,-0.91458505,13.29979,0.3213151,0.33964106,-0.02565634
1757592594677,2.9712043,-0.91458505,13.29979,0.23457226,0.30176744,-0.04520403
1757592594694,3.311181,-1.1252748,13.098678,0.23457226,0.30176744,-0.04520403
1757592594696,3.311181,-1.1252748,13.098678,0.3640757,0.27855456,-0.02076942
1757592594714,3.2848446,-0.78050977,12.77546,0.3640757,0.27855456,-0.02076942
1757592594715,3.2848446,-0.78050977,12.77546,0.5045747,0.3213151,0.008552114
1757592594735,2.8514943,-0.51714754,12.595895,0.5045747,0.3213151,0.008552114
1757592594736,2.8514943,-0.51714754,12.595895,0.43860126,0.3481932,-0.008552114
1757592594753,2.7006595,-0.79008657,12.212823,0.43860126,0.3481932,-0.008552114
1757592594755,2.7006595,-0.79008657,12.212823,0.37018433,0.31642818,-0.052534413
1757592594774,2.9783869,-0.830788,11.801021,0.37018433,0.31642818,-0.052534413
1757592594776,2.9783869,-0.830788,11.801021,0.5375614,0.32498032,-0.05375614
1757592594794,2.7964275,-0.34237084,11.640609,0.5375614,0.32498032,-0.05375614
1757592594796,2.7964275,-0.34237084,11.640609,0.7489208,0.41783184,-0.05131268
1757592594815,2.2649148,0.076614454,11.626244,0.7489208,0.41783184,-0.05131268
1757592594816,2.2649148,0.076614454,11.626244,0.8026769,0.54611355,-0.062308256
1757592594834,1.8124107,0.45968673,11.695675,0.8026769,0.54611355,-0.062308256
1757592594836,1.8124107,0.45968673,11.695675,0.7086037,0.6462954,-0.11362094
1757592594855,1.6903064,0.5793968,11.073183,0.7086037,0.6462954,-0.11362094
1757592594857,1.6903064,0.5793968,11.073183,0.6365216,0.69027776,-0.15882497
1757592594875,1.6903064,0.8475474,10.563218,0.6365216,0.69027776,-0.15882497
1757592594877,1.6903064,0.8475474,10.563218,0.7648033,0.72082096,-0.13194689
1757592594895,1.6807296,1.4796166,10.010158,0.7648033,0.72082096,-0.13194689
1757592594897,1.6807296,1.4796166,10.010158,0.9077458,0.75136423,-0.052534413
1757592594915,1.5969325,1.316811,9.006987,0.9077458,0.75136423,-0.052534413
1757592594916,1.5969325,1.316811,9.006987,0.75502944,0.8014552,-0.019547688
1757592594934,1.4197617,0.89064306,8.628703,0.75502944,0.8014552,-0.019547688
1757592594936,1.4197617,0.89064306,8.628703,0.5571091,0.8332202,0.0061086523
1757592594955,1.328782,0.47884035,8.446744,0.5571091,0.8332202,0.0061086523
1757592594956,1.328782,0.47884035,8.446744,0.43493605,0.86376345,0.018325957
1757592594976,0.8595184,0.18195933,8.39886,0.43493605,0.86376345,0.018325957
1757592594978,0.8595184,0.18195933,8.39886,0.43004912,0.8381071,0.007330383
1757592594995,0.20590134,0.7158663,8.379706,0.43004912,0.8381071,0.007330383
1757592594997,0.20590134,0.7158663,8.379706,0.44715336,0.81245077,-0.002443461
1757592595015,-0.17956513,1.3455414,8.394072,0.44715336,0.81245077,-0.002443461
1757592595017,-0.17956513,1.3455414,8.394072,0.37140608,0.70371675,-0.015882496
1757592595034,-0.011971008,1.4987702,8.032547,0.37140608,0.70371675,-0.015882496
1757592595036,-0.011971008,1.4987702,8.032547,0.2724459,0.5448918,-0.018325957
1757592595055,-0.11731588,1.5897499,7.8027034,0.2724459,0.5448918,-0.018325957
1757592595056,-0.11731588,1.5897499,7.8027034,0.3640757,0.47036624,0.021991149
1757592595076,-0.260968,1.8722657,7.577648,0.3640757,0.47036624,0.021991149
1757592595077,-0.260968,1.8722657,7.577648,0.47403142,0.47158796,0.07941248
1757592595094,-0.009576807,1.8698715,7.0341644,0.47403142,0.47158796,0.07941248
1757592595096,-0.009576807,1.8698715,7.0341644,0.42638394,0.45570546,0.09040806
1757592595115,-0.007182605,1.7645266,6.4667387,0.42638394,0.45570546,0.09040806
1757592595117,-0.007182605,1.7645266,6.4667387,0.4654793,0.44959682,0.12339478
1757592595134,-0.20829555,1.6879122,5.9424086,0.4654793,0.44959682,0.12339478
1757592595136,-0.20829555,1.6879122,5.9424086,0.52534413,0.45814893,0.16249016
1757592595155,-0.34715924,1.6687586,5.5521536,0.52534413,0.45814893,0.16249016
1757592595157,-0.34715924,1.6687586,5.5521536,0.5571091,0.4373795,0.17348573
1757592595176,-0.3878607,1.6519991,4.9895163,0.5571091,0.4373795,0.17348573
1757592595177,-0.3878607,1.6519991,4.9895163,0.5216789,0.41050145,0.18081611
1757592595196,-0.3184288,1.7046716,4.6902413,0.5216789,0.41050145,0.18081611
1757592595197,-0.3184288,1.7046716,4.6902413,0.48747048,0.39095375,0.17348573
1757592595214,-0.4237737,1.8148049,4.5920787,0.48747048,0.39095375,0.17348573
1757592595215,-0.4237737,1.8148049,4.5920787,0.45081854,0.376293,0.20280726
1757592595235,-0.5674258,1.7597382,4.3478703,0.45081854,0.376293,0.20280726
1757592595236,-0.5674258,1.7597382,4.3478703,0.3555236,0.33108896,0.26633725
1757592595255,-0.6799533,1.6759412,5.305551,0.3555236,0.33108896,0.26633725
1757592595257,-0.6799533,1.6759412,5.305551,0.2406809,0.35185838,0.28955013
1757592595275,-0.7110779,1.7956513,5.602432,0.2406809,0.35185838,0.28955013
1757592595277,-0.7110779,1.7956513,5.602432,0.2003638,0.3652974,0.3323107
1757592595294,-0.6751649,2.135628,6.256049,0.2003638,0.3652974,0.3323107
1757592595296,-0.6751649,2.135628,6.256049,0.1282817,0.34697145,0.31764993
1757592595316,-1.0295067,2.44448,7.091625,0.1282817,0.34697145,0.31764993
1757592595318,-1.0295067,2.44448,7.091625,0.06963864,0.32253686,0.29932398
1757592595335,-1.5610195,2.6839,7.599196,0.06963864,0.32253686,0.29932398
1757592595337,-1.5610195,2.6839,7.599196,-0.0012217305,0.2761111,0.28221974
1757592595355,-1.5251064,2.9041667,7.97748,-0.0012217305,0.2761111,0.28221974
1757592595357,-1.5251064,2.9041667,7.97748,-0.13683382,0.17592919,0.22724187
1757592595375,-1.2114661,3.2393548,8.3390045,-0.13683382,0.17592919,0.22724187
1757592595377,-1.2114661,3.2393548,8.3390045,-0.28710666,0.080634214,0.15027285
1757592595395,-1.3503298,3.083732,8.6813755,-0.28710666,0.080634214,0.15027285
1757592595397,-1.3503298,3.083732,8.6813755,-0.35430184,0.04520403,0.118507855
1757592595415,-1.5753847,3.1028855,8.836999,-0.35430184,0.04520403,0.118507855
1757592595417,-1.5753847,3.1028855,8.836999,-0.3885103,-0.009773844,0.1160644
1757592595435,-1.2162545,2.873042,8.717288,-0.3885103,-0.009773844,0.1160644
1757592595437,-1.2162545,2.873042,8.717288,-0.41783184,-0.12461651,0.10140363
1757592595455,-1.091756,2.420538,8.35337,-0.41783184,-0.12461651,0.10140363
1757592595457,-1.091756,2.420538,8.35337,-0.4166101,-0.20280726,0.05497787
1757592595476,-0.9935937,2.480393,8.281544,-0.4166101,-0.20280726,0.05497787
1757592595477,-0.9935937,2.480393,8.281544,-0.34208453,-0.24312437,0.034208454
1757592595495,-1.1755531,2.5881321,8.39886,-0.34208453,-0.24312437,0.034208454
1757592595497,-1.1755531,2.5881321,8.39886,-0.33841935,-0.267559,0.017104227
1757592595516,-1.2354081,2.2505496,8.291121,-0.33841935,-0.267559,0.017104227
1757592595518,-1.2354081,2.2505496,8.291121,-0.36774087,-0.36041048,0.0036651916
1757592595536,-1.151611,2.0805612,8.133103,-0.36774087,-0.36041048,0.0036651916
1757592595538,-1.151611,2.0805612,8.133103,-0.41050145,-0.46670106,0.004886922
1757592595556,-1.043872,2.0757728,8.063671,-0.41050145,-0.46670106,0.004886922
1757592595558,-1.043872,2.0757728,8.063671,-0.45204028,-0.5839872,0.017104227
1757592595576,-0.8451532,1.8962077,7.809886,-0.45204028,-0.5839872,0.017104227
1757592595578,-0.8451532,1.8962077,7.809886,-0.55955255,-0.72692966,0.039095376
1757592595596,-0.6464345,0.9792285,7.3406224,-0.55955255,-0.72692966,0.039095376
1757592595599,-0.6464345,0.9792285,7.3406224,-0.59742624,-1.0177015,0.08674286
1757592595614,-0.31603462,1.13964,7.3310456,-0.59742624,-1.0177015,0.08674286
1757592595615,-0.31603462,1.13964,7.3310456,-0.59864795,-1.2815952,0.1563815
1757592595638,-0.10534488,1.0247183,6.64391,-0.59864795,-1.2815952,0.1563815
1757592595640,-0.10534488,1.0247183,6.64391,-0.8173377,-1.5711454,0.2443461
1757592595655,0.15083471,0.40940848,5.571307,-0.8173377,-1.5711454,0.2443461
1757592595657,0.15083471,0.40940848,5.571307,-1.2400564,-2.0048597,0.2773328
1757592595676,0.7517793,-0.22984336,4.4675803,-1.2400564,-2.0048597,0.2773328
1757592595678,0.7517793,-0.22984336,4.4675803,-1.4746287,-2.3921483,0.25534168
1757592595696,1.376666,-0.08619126,4.2640734,-1.4746287,-2.3921483,0.25534168
1757592595698,1.376666,-0.08619126,4.2640734,-1.4905112,-2.4959953,0.27000242
1757592595715,1.8052281,-0.02633622,4.984728,-1.4905112,-2.4959953,0.27000242
1757592595717,1.8052281,-0.02633622,4.984728,-1.4856243,-2.4666739,0.2687807
1757592595736,1.757344,-0.090979666,5.463568,-1.4856243,-2.4666739,0.2687807
1757592595738,1.757344,-0.090979666,5.463568,-1.5992452,-2.4459045,0.30665436
1757592595755,2.255338,-0.1436521,4.972757,-1.5992452,-2.4459045,0.30665436
1757592595757,2.255338,-0.1436521,4.972757,-1.65911,-2.4104743,0.3555236
1757592595776,2.9041667,-0.5363012,4.8386817,-1.65911,-2.4104743,0.3555236
1757592595778,2.9041667,-0.5363012,4.8386817,-1.6701056,-2.3188446,0.44348818
1757592595796,3.2680852,-1.436521,4.9536033,-1.6701056,-2.3188446,0.44348818
1757592595797,3.2680852,-1.436521,4.9536033,-1.709201,-2.2821925,0.4166101
1757592595816,4.3718123,-1.7142484,5.422867,-1.709201,-2.2821925,0.4166101
1757592595818,4.3718123,-1.7142484,5.422867,-1.6713274,-2.2235496,0.28710666
1757592595836,5.2720323,-1.2162545,5.9400144,-1.6713274,-2.2235496,0.28710666
1757592595838,5.2720323,-1.2162545,5.9400144,-1.5784758,-2.0720549,0.20647246
1757592595855,5.106832,-1.460463,6.3661823,-1.5784758,-2.0720549,0.20647246
1757592595857,5.106832,-1.460463,6.3661823,-1.5173893,-1.7055358,0.14294247
1757592595877,4.9823337,-2.2457612,6.6271505,-1.5173893,-1.7055358,0.14294247
1757592595878,4.9823337,-2.2457612,6.6271505,-1.600467,-1.4587462,0.1600467
1757592595896,5.243302,-2.8395233,6.9719152,-1.600467,-1.4587462,0.1600467
1757592595898,5.243302,-2.8395233,6.9719152,-1.7275269,-1.3035865,0.1160644
1757592595915,5.185841,-3.1651347,7.764396,-1.7275269,-1.3035865,0.1160644
1757592595917,5.185841,-3.1651347,7.764396,-1.7336355,-1.1704178,0.09285152
1757592595937,5.118803,-3.6272156,8.133103,-1.7336355,-1.1704178,0.09285152
1757592595938,5.118803,-3.6272156,8.133103,-1.6847663,-0.9957104,0.09040806
1757592595955,5.547365,-4.0797195,8.293514,-1.6847663,-0.9957104,0.09040806
1757592595957,5.547365,-4.0797195,8.293514,-1.6737708,-0.9260717,0.059864793
1757592595977,5.9184666,-4.2999864,7.855376,-1.6737708,-0.9260717,0.059864793
1757592595978,5.9184666,-4.2999864,7.855376,-1.5149459,-0.7819075,-0.042760566
1757592595998,5.7389016,-4.6112323,8.2169,-1.5149459,-0.7819075,-0.042760566
1757592595999,5.7389016,-4.6112323,8.2169,-1.1398746,-0.59742624,-0.062308256
1757592596017,5.896919,-4.0078936,8.429984,-1.1398746,-0.59742624,-0.062308256
1757592596018,5.896919,-4.0078936,8.429984,-0.9786061,-0.4251622,-0.009773844
1757592596036,6.715736,-3.9839516,8.149862,-0.9786061,-0.4251622,-0.009773844
1757592596038,6.715736,-3.9839516,8.149862,-1.0042624,-0.33964106,0.040317107
1757592596056,6.897695,-4.9344497,8.6813755,-1.0042624,-0.33964106,0.040317107
1757592596058,6.897695,-4.9344497,8.6813755,-1.0848967,-0.36285394,0.08552113
1757592596076,6.7372837,-5.6886234,8.485051,-1.0848967,-0.36285394,0.08552113
1757592596077,6.7372837,-5.6886234,8.485051,-0.9309586,-0.41783184,0.10629055
1757592596095,7.0485296,-5.4300494,8.207323,-0.9309586,-0.41783184,0.10629055
1757592596096,7.0485296,-5.4300494,8.207323,-0.6963864,-0.4654793,0.20525073
1757592596115,8.128315,-5.207389,6.8545995,-0.6963864,-0.4654793,0.20525073
1757592596116,8.128315,-5.207389,6.8545995,-0.8918633,-0.44715336,0.19181168
1757592596136,8.372523,-6.325481,6.6870055,-0.8918633,-0.44715336,0.19181168
1757592596137,8.372523,-6.325481,6.6870055,-0.91874135,-0.43493605,0.19303341
1757592596156,8.24563,-7.156269,7.560889,-0.91874135,-0.43493605,0.19303341
1757592596157,8.24563,-7.156269,7.560889,-0.61575216,-0.3567453,0.14660765
1757592596177,8.429984,-6.5744777,8.305486,-0.61575216,-0.3567453,0.14660765
1757592596178,8.429984,-6.5744777,8.305486,-0.3567453,-0.1966986,0.112399206
1757592596197,8.7771435,-6.1100025,8.588001,-0.3567453,-0.1966986,0.112399206
1757592596198,8.7771435,-6.1100025,8.588001,-0.50946164,-0.16493362,0.087964594
1757592596217,8.602366,-6.7588315,7.7811556,-0.50946164,-0.16493362,0.087964594
1757592596218,8.602366,-6.7588315,7.7811556,-0.8539896,-0.21502456,0.04886922
1757592596237,8.791509,-8.042124,7.563283,-0.8539896,-0.21502456,0.04886922
1757592596238,8.791509,-8.042124,7.563283,-0.71593404,-0.24923302,0.04520403
1757592596256,9.397242,-7.536947,8.295909,-0.71593404,-0.24923302,0.04520403
1757592596257,9.397242,-7.536947,8.295909,-0.24801129,-0.18081611,0.07452556
1757592596277,9.576807,-7.16824,8.413225,-0.24801129,-0.18081611,0.07452556
1757592596278,9.576807,-7.16824,8.413225,-0.012217305,-0.13561209,0.09407325
1757592596295,9.270349,-7.5848308,8.195353,-0.012217305,-0.13561209,0.09407325
1757592596296,9.270349,-7.5848308,8.195353,-0.05009095,-0.17715092,0.08674286
1757592596316,9.540894,-7.9942393,7.8888946,-0.05009095,-0.17715092,0.08674286
1757592596317,9.540894,-7.9942393,7.8888946,0.07941248,-0.20280726,0.05131268
1757592596337,9.763555,-8.058883,7.943961,0.07941248,-0.20280726,0.05131268
1757592596338,9.763555,-8.058883,7.943961,0.28955013,-0.18081611,0.015882496
1757592596356,9.998186,-7.6734166,7.644686,0.28955013,-0.18081611,0.015882496
1757592596358,9.998186,-7.6734166,7.644686,0.35918877,-0.13561209,-0.017104227
1757592596377,9.9790325,-7.264008,7.395689,0.35918877,-0.13561209,-0.017104227
1757592596378,9.9790325,-7.264008,7.395689,0.2919936,-0.080634214,-0.030543262
1757592596396,9.607931,-7.40766,7.644686,0.2919936,-0.080634214,-0.030543262
1757592596398,9.607931,-7.40766,7.644686,0.06963864,-0.032986723,-0.043982297
1757592596417,9.435549,-8.123527,7.9822683,0.06963864,-0.032986723,-0.043982297
1757592596418,9.435549,-8.123527,7.9822683,-0.06719518,-0.028099801,-0.035430185
1757592596437,9.275137,-7.8888946,8.437167,-0.06719518,-0.028099801,-0.035430185
1757592596438,9.275137,-7.8888946,8.437167,0.004886922,-0.0061086523,-0.015882496
1757592596458,9.41879,-7.3430166,8.224083,0.004886922,-0.0061086523,-0.015882496
1757592596459,9.41879,-7.3430166,8.224083,0.19425514,0.02076942,0.015882496
1757592596478,9.512163,-7.2424603,7.896077,0.19425514,0.02076942,0.015882496
1757592596479,9.512163,-7.2424603,7.896077,0.25289822,0.057421334,-0.0012217305
1757592596497,9.334992,-7.371747,7.690176,0.25289822,0.057421334,-0.0012217305
1757592596498,9.334992,-7.371747,7.690176,0.32986724,0.13927728,-0.02443461
1757592596517,9.0476885,-7.1251445,7.821857,0.32986724,0.13927728,-0.02443461
1757592596518,9.0476885,-7.1251445,7.821857,0.40194935,0.18570304,-0.043982297
1757592596535,8.949526,-7.062895,7.8386164,0.40194935,0.18570304,-0.043982297
1757592596537,8.949526,-7.062895,7.8386164,0.43371433,0.21502456,-0.056199603
1757592596555,8.899248,-7.1371155,8.094796,0.43371433,0.21502456,-0.056199603
1757592596557,8.899248,-7.1371155,8.094796,0.44715336,0.27366763,-0.056199603
1757592596576,8.4108305,-7.2927384,8.564059,0.44715336,0.27366763,-0.056199603
1757592596578,8.4108305,-7.2927384,8.564059,0.48380527,0.32498032,-0.056199603
1757592596597,8.396465,-7.3430166,8.384495,0.48380527,0.32498032,-0.056199603
1757592596599,8.396465,-7.3430166,8.384495,0.657291,0.33964106,-0.06963864
1757592596616,8.7292595,-6.7684083,7.505822,0.657291,0.33964106,-0.06963864
1757592596617,8.7292595,-6.7684083,7.505822,1.0054842,0.4373795,-0.062308256
1757592596637,8.832211,-6.43322,7.2592196,1.0054842,0.4373795,-0.062308256
1757592596638,8.832211,-6.43322,7.2592196,1.0262536,0.5522222,-0.09162979
1757592596657,8.722076,-6.2943563,7.240066,1.0262536,0.5522222,-0.09162979
1757592596658,8.722076,-6.2943563,7.240066,0.82344633,0.64751714,-0.15515977
1757592596677,8.0684595,-6.0764837,7.1826053,0.82344633,0.64751714,-0.15515977
1757592596678,8.0684595,-6.0764837,7.1826053,0.77213365,0.73548174,-0.21746802
1757592596697,7.0341644,-5.121197,7.3166804,0.77213365,0.73548174,-0.21746802
1757592596698,7.0341644,-5.121197,7.3166804,0.91751957,0.79534656,-0.22479841
1757592596717,5.995081,-4.1683054,6.9168487,0.91751957,0.79534656,-0.22479841
1757592596719,5.995081,-4.1683054,6.9168487,1.0433578,0.8051204,-0.19547687
1757592596737,5.4180784,-3.8642416,6.3422403,1.0433578,0.8051204,-0.19547687
1757592596738,5.4180784,-3.8642416,6.3422403,1.0396926,0.7965683,-0.16982053
1757592596757,5.3678,-3.466804,5.973533,1.0396926,0.7965683,-0.16982053
1757592596758,5.3678,-3.466804,5.973533,0.98715824,0.8197812,-0.16615535
1757592596777,4.8243165,-2.765303,5.925649,0.98715824,0.8197812,-0.16615535
1757592596778,4.8243165,-2.765303,5.925649,0.9615019,0.9089675,-0.12339478
1757592596797,4.3742065,-2.3535004,5.729325,0.9615019,0.9089675,-0.12339478
1757592596798,4.3742065,-2.3535004,5.729325,0.94806284,0.8979719,-0.095294975
1757592596819,4.132392,-2.3415294,5.628768,0.94806284,0.8979719,-0.095294975
1757592596821,4.132392,-2.3415294,5.628768,0.9492846,0.8784242,-0.064751714
1757592596837,4.086902,-2.1140802,5.449203,0.9492846,0.8784242,-0.064751714
1757592596839,4.086902,-2.1140802,5.449203,0.9224065,0.8381071,-0.042760566
1757592596857,4.0438066,-1.8818425,5.159505,0.9224065,0.8381071,-0.042760566
1757592596859,4.0438066,-1.8818425,5.159505,0.8918633,0.816116,-0.037873644
1757592596877,3.809175,-1.6112977,4.6136265,0.8918633,0.816116,-0.037873644
1757592596878,3.809175,-1.6112977,4.6136265,0.8772025,0.81245077,-0.032986723
1757592596898,3.13401,-1.376666,4.5657425,0.8772025,0.81245077,-0.032986723
1757592596899,3.13401,-1.376666,4.5657425,0.9089675,0.8222246,-0.02443461
1757592596917,2.6862943,-0.92895025,4.3239284,0.9089675,0.8222246,-0.02443461
1757592596918,2.6862943,-0.92895025,4.3239284,0.9334021,0.80756384,0.0
1757592596938,2.3750482,-0.7781156,3.98874,0.9334021,0.80756384,0.0
1757592596939,2.3750482,-0.7781156,3.98874,0.91996306,0.7672467,0.018325957
1757592596958,1.9895816,-0.5506664,3.430891,0.91996306,0.7672467,0.018325957
1757592596959,1.9895816,-0.5506664,3.430891,0.8735373,0.72082096,0.04153884
1757592596976,1.6136919,-0.20111294,3.478775,0.8735373,0.72082096,0.04153884
1757592596978,1.6136919,-0.20111294,3.478775,0.8564331,0.7257079,0.05131268
1757592596997,1.2569559,-0.009576807,3.3446999,0.8564331,0.7257079,0.05131268
1757592596998,1.2569559,-0.009576807,3.3446999,0.8393288,0.7134906,0.061086524
1757592597017,1.2569559,-0.02633622,3.2202013,0.8393288,0.7134906,0.061086524
1757592597019,1.2569559,-0.02633622,3.2202013,0.75869465,0.68783426,0.073303826
1757592597038,1.520318,-0.0023942017,3.5242648,0.75869465,0.68783426,0.073303826
1757592597040,1.520318,-0.0023942017,3.5242648,0.59131753,0.6426302,0.047647487
1757592597057,1.6567876,-0.038307227,4.0677485,0.59131753,0.6426302,0.047647487
1757592597059,1.6567876,-0.038307227,4.0677485,0.48624873,0.6389651,0.02076942
1757592597076,2.1619642,0.0,5.1140146,0.48624873,0.6389651,0.02076942
1757592597078,2.1619642,0.0,5.1140146,0.4361578,0.6731735,0.02321288
1757592597096,2.6599581,-0.12210429,6.184223,0.4361578,0.6731735,0.02321288
1757592597098,2.6599581,-0.12210429,6.184223,0.33964106,0.7049385,0.03176499
1757592597115,2.3942018,0.110133275,8.082825,0.33964106,0.7049385,0.03176499
1757592597116,2.3942018,0.110133275,8.082825,0.15027285,0.6218608,0.0720821
1757592597137,2.6144683,-0.076614454,9.409213,0.15027285,0.6218608,0.0720821
1757592597139,2.6144683,-0.076614454,9.409213,-0.11728613,0.41783184,0.09162979
1757592597155,3.110068,-0.93852705,10.515334,-0.11728613,0.41783184,0.09162979
1757592597156,3.110068,-0.93852705,10.515334,-0.44348818,0.16249016,0.12461651
1757592597175,3.3279405,-2.030283,10.924743,-0.44348818,0.16249016,0.12461651
1757592597177,3.3279405,-2.030283,10.924743,-0.63529986,-0.112399206,0.172264
1757592597195,3.5122938,-2.44448,10.553641,-0.63529986,-0.112399206,0.172264
1757592597197,3.5122938,-2.44448,10.553641,-0.61208695,-0.27488935,0.15027285
1757592597216,3.655946,-1.8674773,9.876082,-0.61208695,-0.27488935,0.15027285
1757592597218,3.655946,-1.8674773,9.876082,-0.42638394,-0.3494149,0.1282817
1757592597236,3.5625722,-0.9648633,9.354146,-0.42638394,-0.3494149,0.1282817
1757592597238,3.5625722,-0.9648633,9.354146,-0.2565634,-0.28710666,0.10751228
1757592597257,3.3446999,-0.36870706,9.006987,-0.2565634,-0.28710666,0.10751228
1757592597258,3.3446999,-0.36870706,9.006987,-0.15271631,-0.17348573,0.08552113
1757592597278,3.2800562,-0.33279404,8.899248,-0.15271631,-0.17348573,0.08552113
1757592597279,3.2800562,-0.33279404,8.899248,-0.017104227,-0.09285152,0.08307768
1757592597298,3.3039982,-0.7398083,8.432379,-0.017104227,-0.09285152,0.08307768
1757592597300,3.3039982,-0.7398083,8.432379,0.06963864,-0.02321288,0.05497787
1757592597317,3.169923,-0.81163436,8.063671,0.06963864,-0.02321288,0.05497787
1757592597318,3.169923,-0.81163436,8.063671,0.013439035,-0.04153884,0.004886922
1757592597338,2.9041667,-0.92416185,7.536947,0.013439035,-0.04153884,0.004886922
1757592597339,2.9041667,-0.92416185,7.536947,-0.10629055,-0.1160644,-0.028099801
1757592597358,2.6623523,-0.8643068,7.074866,-0.10629055,-0.1160644,-0.028099801
1757592597359,2.6623523,-0.8643068,7.074866,-0.3286455,-0.21135938,-0.037873644
1757592597379,2.657564,-1.1085154,6.7492547,-0.3286455,-0.21135938,-0.037873644
1757592597381,2.657564,-1.1085154,6.7492547,-0.60231316,-0.30543262,-0.04642576
1757592597399,2.6120741,-1.163582,6.7444663,-0.60231316,-0.30543262,-0.04642576
1757592597400,2.6120741,-1.163582,6.7444663,-0.8063421,-0.39461896,-0.02321288
1757592597418,2.3678656,-1.2234371,6.7013707,-0.8063421,-0.39461896,-0.02321288
1757592597419,2.3678656,-1.2234371,6.7013707,-0.9431759,-0.48991394,0.02321288
1757592597438,2.219425,-1.4556746,6.6846113,-0.9431759,-0.48991394,0.02321288
1757592597440,2.219425,-1.4556746,6.6846113,-1.0677924,-0.61208695,0.064751714
1757592597458,2.7269957,-1.6472107,6.679823,-1.0677924,-0.61208695,0.064751714
1757592597459,2.7269957,-1.6472107,6.679823,-1.1826351,-0.8136725,0.11484267
1757592597478,2.834735,-1.5753847,6.588843,-1.1826351,-0.8136725,0.11484267
1757592597480,2.834735,-1.5753847,6.588843,-1.1765264,-0.8344419,0.15271631
1757592597497,2.7341783,-1.3790601,6.303933,-1.1765264,-0.8344419,0.15271631
1757592597498,2.7341783,-1.3790601,6.303933,-1.1606439,-0.8405506,0.17470746
1757592597518,2.8514943,-1.5059528,6.033388,-1.1606439,-0.8405506,0.17470746
1757592597519,2.8514943,-1.5059528,6.033388,-1.1410962,-0.8735373,0.17959438
1757592597538,2.906561,-2.0805612,5.3965306,-1.1410962,-0.8735373,0.17959438
1757592597540,2.906561,-2.0805612,5.3965306,-0.9651671,-0.8894198,0.13805555
1757592597558,3.0909145,-2.4133554,4.63278,-0.9651671,-0.8894198,0.13805555
1757592597560,3.0909145,-2.4133554,4.63278,-0.5534439,-0.784351,0.11484267
1757592597579,3.074155,-2.3343468,4.1156325,-0.5534439,-0.784351,0.11484267
1757592597581,3.074155,-2.3343468,4.1156325,-0.13561209,-0.5571091,0.07452556
1757592597597,3.0693667,-1.982399,3.5553896,-0.13561209,-0.5571091,0.07452556
1757592597599,3.0693667,-1.982399,3.5553896,0.02443461,-0.4092797,0.059864793
1757592597617,3.2968156,-2.2840683,3.3494883,0.02443461,-0.4092797,0.059864793
1757592597619,3.2968156,-2.2840683,3.3494883,-0.004886922,-0.31398472,0.012217305
1757592597638,3.7421372,-2.5115175,3.6822822,-0.004886922,-0.31398472,0.012217305
1757592597640,3.7421372,-2.5115175,3.6822822,0.0036651916,-0.21991149,-0.09896017
1757592597658,3.952827,-2.0374656,4.369418,0.0036651916,-0.21991149,-0.09896017
1757592597660,3.952827,-2.0374656,4.369418,-0.103847094,-0.18203785,-0.15027285
1757592597678,3.9312792,-2.1691468,5.1930237,-0.103847094,-0.18203785,-0.15027285
1757592597679,3.9312792,-2.1691468,5.1930237,-0.14172074,-0.18448131,-0.16126843
1757592597697,3.9264908,-2.2960393,5.9280434,-0.14172074,-0.18448131,-0.16126843
1757592597699,3.9264908,-2.2960393,5.9280434,-0.16615535,-0.13072516,-0.105068825
1757592597718,4.699818,-2.858677,6.967127,-0.16615535,-0.13072516,-0.105068825
1757592597720,4.699818,-2.858677,6.967127,-0.30298916,-0.14172074,-0.061086524
1757592597739,4.972757,-3.8905778,7.627927,-0.30298916,-0.14172074,-0.061086524
1757592597740,4.972757,-3.8905778,7.627927,-0.46792278,-0.18081611,-0.065973446
1757592597758,4.8602295,-4.7860093,8.094796,-0.46792278,-0.18081611,-0.065973446
1757592597760,4.8602295,-4.7860093,8.094796,-0.47403142,-0.21380283,-0.103847094
1757592597780,4.8698063,-4.5801077,8.082825,-0.47403142,-0.21380283,-0.103847094
1757592597782,4.8698063,-4.5801077,8.082825,-0.3494149,-0.2321288,-0.16371189
1757592597798,5.580884,-3.8714242,7.965509,-0.3494149,-0.2321288,-0.16371189
1757592597799,5.580884,-3.8714242,7.965509,-0.103847094,-0.21624629,-0.096516706
1757592597819,6.0022635,-4.0940847,8.104373,-0.103847094,-0.21624629,-0.096516706
1757592597820,6.0022635,-4.0940847,8.104373,-0.032986723,-0.19058995,-0.036651913
1757592597837,5.681441,-4.3239284,8.532935,-0.032986723,-0.19058995,-0.036651913
1757592597839,5.681441,-4.3239284,8.532935,0.014660766,-0.12583824,0.061086524
1757592597859,5.058948,-4.865018,9.002198,0.014660766,-0.12583824,0.061086524
1757592597860,5.058948,-4.865018,9.002198,-0.02076942,-0.07941248,0.07086037
1757592597878,5.41329,-5.068525,9.174581,-0.02076942,-0.07941248,0.07086037
1757592597880,5.41329,-5.068525,9.174581,-0.043982297,-0.07696902,0.03176499
1757592597898,6.227319,-5.317522,8.9519205,-0.043982297,-0.07696902,0.03176499
1757592597899,6.227319,-5.317522,8.9519205,0.27000242,-0.028099801,0.03176499
1757592597918,6.555324,-4.876989,9.258378,0.27000242,-0.028099801,0.03176499
1757592597920,6.555324,-4.876989,9.258378,0.7098254,0.06352998,0.12705997
1757592597938,6.4308257,-4.3478703,9.7324295,0.7098254,0.06352998,0.12705997
1757592597940,6.4308257,-4.3478703,9.7324295,0.6389651,0.11728613,0.22968534
1757592597959,6.576872,-4.6830587,10.160992,0.6389651,0.11728613,0.22968534
1757592597960,6.576872,-4.6830587,10.160992,0.11484267,0.052534413,0.25900686
1757592597979,6.8282633,-6.1100025,9.799467,0.11484267,0.052534413,0.25900686
1757592597980,6.8282633,-6.1100025,9.799467,-0.2565634,-0.021991149,0.18081611
1757592597997,6.9000893,-5.9902925,9.504981,-0.2565634,-0.021991149,0.18081611
1757592597999,6.9000893,-5.9902925,9.504981,-0.05009095,-0.032986723,0.1282817
1757592598018,7.026982,-4.9344497,9.605537,-0.05009095,-0.032986723,0.1282817
1757592598019,7.026982,-4.9344497,9.605537,0.18570304,0.002443461,0.09773844
1757592598039,7.252037,-4.0414124,9.727641,0.18570304,0.002443461,0.09773844
1757592598041,7.252037,-4.0414124,9.727641,0.10995574,0.035430185,0.10140363
1757592598059,7.2711906,-4.120421,9.904813,0.10995574,0.035430185,0.10140363
1757592598061,7.2711906,-4.120421,9.904813,-0.15271631,0.02687807,0.103847094
1757592598079,7.0940194,-4.9583917,9.950302,-0.15271631,0.02687807,0.103847094
1757592598081,7.0940194,-4.9583917,9.950302,-0.36651915,-0.0012217305,0.103847094
1757592598099,7.237672,-5.5880666,10.151415,-0.36651915,-0.0012217305,0.103847094
1757592598101,7.237672,-5.5880666,10.151415,-0.3848451,-0.064751714,0.08674286
1757592598117,7.2304893,-6.021417,10.151415,-0.3848451,-0.064751714,0.08674286
1757592598118,7.2304893,-6.021417,10.151415,-0.1685988,-0.12950343,0.047647487
1757592598139,7.3789296,-4.8698063,10.175357,-0.1685988,-0.12950343,0.047647487
1757592598141,7.3789296,-4.8698063,10.175357,0.18203785,-0.07819075,-0.04153884
1757592598159,7.699753,-4.7165775,10.30225,0.18203785,-0.07819075,-0.04153884
1757592598161,7.699753,-4.7165775,10.30225,0.13683382,-0.05131268,-0.042760566
1757592598179,8.3150625,-5.4204726,10.477027,0.13683382,-0.05131268,-0.042760566
1757592598181,8.3150625,-5.4204726,10.477027,-0.036651913,-0.059864793,-0.04520403
1757592598199,8.374918,-6.090849,10.955867,-0.036651913,-0.059864793,-0.04520403
1757592598200,8.374918,-6.090849,10.955867,-0.05375614,-0.02076942,-0.062308256
1757592598219,7.9224133,-6.093243,11.219229,-0.05375614,-0.02076942,-0.062308256
1757592598220,7.9224133,-6.093243,11.219229,0.002443461,0.021991149,-0.11362094
1757592598239,7.7691846,-5.813122,11.070788,0.002443461,0.021991149,-0.11362094
1757592598241,7.7691846,-5.813122,11.070788,0.0012217305,0.02565634,-0.118507855
1757592598259,7.6734166,-5.925649,10.840945,0.0012217305,0.02565634,-0.118507855
1757592598260,7.6734166,-5.925649,10.840945,-0.18203785,0.010995574,-0.13439035
1757592598279,7.630321,-6.6510925,10.680533,-0.18203785,0.010995574,-0.13439035
1757592598281,7.630321,-6.6510925,10.680533,-0.3933972,0.080634214,-0.17837265
1757592598301,7.5944076,-6.5601125,11.097125,-0.3933972,0.080634214,-0.17837265
1757592598302,7.5944076,-6.5601125,11.097125,-0.41783184,0.2284636,-0.20280726
1757592598318,6.9838862,-5.753267,11.674128,-0.41783184,0.2284636,-0.20280726
1757592598320,6.9838862,-5.753267,11.674128,-0.15149458,0.32986724,-0.18203785
1757592598339,7.1131735,-5.3007627,11.221623,-0.15149458,0.32986724,-0.18203785
1757592598340,7.1131735,-5.3007627,11.221623,-0.02076942,0.29932398,-0.11728613
1757592598357,7.45315,-5.8226986,10.740389,-0.02076942,0.29932398,-0.11728613
1757592598359,7.45315,-5.8226986,10.740389,-0.009773844,0.23701571,-0.09040806
1757592598379,7.608773,-6.4164605,10.213664,-0.009773844,0.23701571,-0.09040806
1757592598381,7.608773,-6.4164605,10.213664,0.052534413,0.2321288,-0.10873401
1757592598399,7.455544,-6.2871737,9.770737,0.052534413,0.2321288,-0.10873401
1757592598401,7.455544,-6.2871737,9.770737,0.17959438,0.2773328,-0.09896017
1757592598418,7.240066,-5.681441,9.56723,0.17959438,0.2773328,-0.09896017
1757592598419,7.240066,-5.681441,9.56723,0.10751228,0.2773328,-0.09896017
1757592598437,7.1131735,-5.5018754,9.038112,0.10751228,0.2773328,-0.09896017
1757592598438,7.1131735,-5.5018754,9.038112,-0.12705997,0.2443461,-0.12461651
1757592598457,6.849811,-5.7987566,8.935161,-0.12705997,0.2443461,-0.12461651
1757592598459,6.849811,-5.7987566,8.935161,-0.2565634,0.21380283,-0.13316862
1757592598478,6.3470287,-5.133168,9.481039,-0.2565634,0.21380283,-0.13316862
1757592598479,6.3470287,-5.133168,9.481039,-0.1563815,0.2406809,-0.1282817
1757592598498,5.815516,-4.546589,9.203311,-0.1563815,0.2406809,-0.1282817
1757592598500,5.815516,-4.546589,9.203311,-0.15271631,0.19792034,-0.10629055
1757592598519,5.717354,-4.6399627,8.573636,-0.15271631,0.19792034,-0.10629055
1757592598520,5.717354,-4.6399627,8.573636,-0.17470746,0.14660765,-0.11484267
1757592598538,5.7987566,-4.7285485,7.845799,-0.17470746,0.14660765,-0.11484267
1757592598539,5.7987566,-4.7285485,7.845799,-0.036651913,0.09773844,-0.13316862
1757592598559,5.554548,-4.4963107,7.6710224,-0.036651913,0.09773844,-0.13316862
1757592598560,5.554548,-4.4963107,7.6710224,0.24312437,0.15515977,-0.13927728
1757592598581,5.3725886,-3.7972038,7.57286,0.24312437,0.15515977,-0.13927728
1757592598582,5.3725886,-3.7972038,7.57286,0.4007276,0.19914207,-0.15149458
1757592598598,5.0757074,-3.4356794,7.019799,0.4007276,0.19914207,-0.15149458
1757592598599,5.0757074,-3.4356794,7.019799,0.4569272,0.17837265,-0.14172074
1757592598619,4.8865657,-3.2800562,6.1746464,0.4569272,0.17837265,-0.14172074
1757592598620,4.8865657,-3.2800562,6.1746464,0.4373795,0.13194689,-0.12583824
1757592598639,4.673482,-2.9759927,5.341464,0.4373795,0.13194689,-0.12583824
1757592598641,4.673482,-2.9759927,5.341464,0.26389378,0.09896017,-0.12950343
1757592598659,4.268862,-2.4229321,5.159505,0.26389378,0.09896017,-0.12950343
1757592598660,4.268862,-2.4229321,5.159505,0.13194689,0.118507855,-0.1282817
1757592598680,3.715801,-2.3582888,5.2600613,0.13194689,0.118507855,-0.1282817
1757592598681,3.715801,-2.3582888,5.2600613,0.0,0.13805555,-0.119729586
1757592598700,3.2441432,-2.6288335,5.365406,0.0,0.13805555,-0.119729586
1757592598701,3.2441432,-2.6288335,5.365406,-0.1441642,0.095294975,-0.09040806
1757592598719,3.122039,-3.193865,5.183447,-0.1441642,0.095294975,-0.09040806
1757592598720,3.122039,-3.193865,5.183447,-0.20525073,0.02443461,-0.095294975
1757592598740,2.9999347,-2.9496565,5.130774,-0.20525073,0.02443461,-0.095294975
1757592598741,2.9999347,-2.9496565,5.130774,-0.021991149,0.0012217305,-0.10873401
1757592598760,2.5378537,-2.0949266,5.08289,-0.021991149,0.0012217305,-0.10873401
1757592598761,2.5378537,-2.0949266,5.08289,0.30909783,0.013439035,-0.042760566
1757592598780,2.1523874,-1.6519991,4.501099,0.30909783,0.013439035,-0.042760566
1757592598781,2.1523874,-1.6519991,4.501099,0.49480084,-0.010995574,-0.004886922
1757592598800,2.2816741,-1.1587936,3.8714242,0.49480084,-0.010995574,-0.004886922
1757592598801,2.2816741,-1.1587936,3.8714242,0.5155703,-0.02687807,0.05131268
1757592598819,2.4253263,-1.3335704,3.5865142,0.5155703,-0.02687807,0.05131268
1757592598821,2.4253263,-1.3335704,3.5865142,0.47158796,0.019547688,0.073303826
1757592598839,2.5210943,-0.92895025,3.7205894,0.47158796,0.019547688,0.073303826
1757592598841,2.5210943,-0.92895025,3.7205894,0.44226643,0.09285152,0.08552113
1757592598859,2.5474305,-0.8451532,3.5936968,0.44226643,0.09285152,0.08552113
1757592598861,2.5474305,-0.8451532,3.5936968,0.39584067,0.17348573,0.07941248
1757592598879,2.566584,-0.79966336,3.7205894,0.39584067,0.17348573,0.07941248
1757592598880,2.566584,-0.79966336,3.7205894,0.2932153,0.24923302,0.062308256
1757592598900,2.4660277,-0.39025488,4.259285,0.2932153,0.24923302,0.062308256
1757592598901,2.4660277,-0.39025488,4.259285,0.21013765,0.3005457,0.058643065
1757592598919,2.4899697,-0.7422025,4.8937483,0.21013765,0.3005457,0.058643065
1757592598920,2.4899697,-0.7422025,4.8937483,0.1001819,0.3371976,0.07574729
1757592598939,2.6671407,-1.2354081,5.2863975,0.1001819,0.3371976,0.07574729
1757592598941,2.6671407,-1.2354081,5.2863975,0.08307768,0.3555236,0.056199603
1757592598960,2.858677,-1.5610195,5.932832,0.08307768,0.3555236,0.056199603
1757592598962,2.858677,-1.5610195,5.932832,0.2406809,0.38973203,0.06719518
1757592598980,3.9624038,-1.6783354,7.8410106,0.2406809,0.38973203,0.06719518
1757592598982,3.9624038,-1.6783354,7.8410106,0.376293,0.49968776,0.06352998
1757592599000,4.656722,-1.8363527,8.714894,0.376293,0.49968776,0.06352998
1757592599002,4.656722,-1.8363527,8.714894,0.28344148,0.5656612,0.0720821
1757592599019,4.9224787,-2.3439236,9.330204,0.28344148,0.5656612,0.0720821
1757592599021,4.9224787,-2.3439236,9.330204,0.118507855,0.49846604,0.047647487
1757592599040,4.915296,-2.956839,9.411607,0.118507855,0.49846604,0.047647487
1757592599041,4.915296,-2.956839,9.411607,0.010995574,0.36651915,0.02321288
1757592599059,4.450821,-3.3135753,9.603143,0.010995574,0.36651915,0.02321288
1757592599060,4.450821,-3.3135753,9.603143,-0.06841691,0.16249016,0.029321533
1757592599080,3.9336734,-3.514688,9.251195,-0.06841691,0.16249016,0.029321533
1757592599081,3.9336734,-3.514688,9.251195,-0.15271631,-0.056199603,-0.009773844
1757592599099,3.940856,-2.9879637,8.59279,-0.15271631,-0.056199603,-0.009773844
1757592599101,3.940856,-2.9879637,8.59279,-0.20280726,-0.20647246,-0.02076942
1757592599121,3.9264908,-2.5234885,8.202535,-0.20280726,-0.20647246,-0.02076942
1757592599122,3.9264908,-2.5234885,8.202535,-0.21991149,-0.23457226,-0.0036651916
1757592599139,3.679888,-2.2768857,8.037335,-0.21991149,-0.23457226,-0.0036651916
1757592599141,3.679888,-2.2768857,8.037335,-0.22357668,-0.17470746,0.008552114
1757592599159,3.560178,-2.4660277,7.8745294,-0.22357668,-0.17470746,0.008552114
1757592599162,3.560178,-2.4660277,7.8745294,-0.080634214,-0.064751714,0.0012217305
1757592599180,3.550601,-2.4061728,7.8410106,-0.080634214,-0.064751714,0.0012217305
1757592599181,3.550601,-2.4061728,7.8410106,0.10995574,-0.010995574,-0.010995574
1757592599200,3.5625722,-1.9081788,7.8146744,0.10995574,-0.010995574,-0.010995574
1757592599202,3.5625722,-1.9081788,7.8146744,0.19303341,-0.042760566,0.0012217305
1757592599219,3.5769374,-1.8171991,7.4986396,0.19303341,-0.042760566,0.0012217305
1757592599221,3.5769374,-1.8171991,7.4986396,0.039095376,-0.16371189,0.002443461
1757592599239,3.5984852,-1.8890251,7.1945763,0.039095376,-0.16371189,0.002443461
1757592599241,3.5984852,-1.8890251,7.1945763,-0.20891592,-0.3115413,0.004886922
1757592599261,3.7684734,-2.1547816,6.9982514,-0.20891592,-0.3115413,0.004886922
1757592599262,3.7684734,-2.1547816,6.9982514,-0.44837508,-0.4202753,-0.004886922
1757592599281,3.9145198,-2.348712,7.0245876,-0.44837508,-0.4202753,-0.004886922
1757592599282,3.9145198,-2.348712,7.0245876,-0.61941737,-0.4886922,-0.013439035
1757592599301,3.952827,-2.303222,7.165846,-0.61941737,-0.4886922,-0.013439035
1757592599302,3.952827,-2.303222,7.165846,-0.7611381,-0.52656585,-0.02443461
1757592599320,3.9001546,-2.3918076,7.455544,-0.7611381,-0.52656585,-0.02443461
1757592599322,3.9001546,-2.3918076,7.455544,-0.9370673,-0.6096435,-0.02321288
1757592599340,4.060566,-2.8538885,7.2185183,-0.9370673,-0.6096435,-0.02321288
1757592599341,4.060566,-2.8538885,7.2185183,-0.9663888,-0.6414085,-0.02687807
1757592599361,4.156334,-3.1387985,7.2113357,-0.9663888,-0.6414085,-0.02687807
1757592599362,4.156334,-3.1387985,7.2113357,-0.88208944,-0.66828656,-0.02076942
1757592599381,4.0294414,-3.0550013,6.799533,-0.88208944,-0.66828656,-0.02076942
1757592599382,4.0294414,-3.0550013,6.799533,-0.77457714,-0.66950834,-0.02076942
1757592599400,3.9815574,-3.086126,6.447585,-0.77457714,-0.66950834,-0.02076942
1757592599402,3.9815574,-3.086126,6.447585,-0.6914995,-0.6780604,-0.009773844
1757592599421,3.9839516,-2.9640217,5.8801594,-0.6914995,-0.6780604,-0.009773844
1757592599422,3.9839516,-2.9640217,5.8801594,-0.59742624,-0.70616025,0.019547688
1757592599440,3.9001546,-2.717419,5.269638,-0.59742624,-0.70616025,0.019547688
1757592599441,3.9001546,-2.717419,5.269638,-0.52656585,-0.7440339,0.095294975
1757592599460,3.7445314,-2.8419175,4.7189717,-0.52656585,-0.7440339,0.095294975
1757592599461,3.7445314,-2.8419175,4.7189717,-0.53878313,-0.7867944,0.16249016
1757592599480,3.916914,-3.277662,4.3622355,-0.53878313,-0.7867944,0.16249016
1757592599482,3.916914,-3.277662,4.3622355,-0.58032197,-0.7415904,0.15882497
1757592599498,3.6391866,-3.5122938,3.940856,-0.58032197,-0.7415904,0.15882497
1757592599499,3.6391866,-3.5122938,3.940856,-0.4642576,-0.65240407,0.14905111
1757592599518,3.5314474,-3.3854012,3.751714,-0.4642576,-0.65240407,0.14905111
1757592599519,3.5314474,-3.3854012,3.751714,-0.30298916,-0.5729916,0.10751228
1757592599539,3.6727054,-3.028665,3.8139634,-0.30298916,-0.5729916,0.10751228
1757592599541,3.6727054,-3.028665,3.8139634,-0.14660765,-0.4813618,0.07086037
1757592599560,4.0318356,-2.7844565,3.8307228,-0.14660765,-0.4813618,0.07086037
1757592599562,4.0318356,-2.7844565,3.8307228,-0.02076942,-0.3811799,0.043982297
1757592599581,4.477157,-2.873042,4.2425256,-0.02076942,-0.3811799,0.043982297
1757592599582,4.477157,-2.873042,4.2425256,0.009773844,-0.28955013,0.040317107
1757592599599,4.7979803,-3.311181,4.6160207,0.009773844,-0.28955013,0.040317107
1757592599601,4.7979803,-3.311181,4.6160207,-0.08552113,-0.24923302,-0.002443461
1757592599620,4.8865657,-3.6296098,4.876989,-0.08552113,-0.24923302,-0.002443461
1757592599622,4.8865657,-3.6296098,4.876989,-0.14538592,-0.21502456,-0.06352998
1757592599640,4.879383,-3.6248214,5.255273,-0.14538592,-0.21502456,-0.06352998
1757592599641,4.879383,-3.6248214,5.255273,-0.17470746,-0.1563815,-0.13194689
1757592599661,5.1355624,-4.3023806,6.0118403,-0.17470746,-0.1563815,-0.13194689
1757592599662,5.1355624,-4.3023806,6.0118403,-0.042760566,-0.0720821,-0.17470746
1757592599681,5.353435,-4.3047748,6.5265937,-0.042760566,-0.0720821,-0.17470746
1757592599682,5.353435,-4.3047748,6.5265937,0.0720821,-0.042760566,-0.1966986
1757592599701,5.5760956,-4.134786,6.7205243,0.0720821,-0.042760566,-0.1966986
1757592599702,5.5760956,-4.134786,6.7205243,0.13316862,-0.018325957,-0.18448131
1757592599721,5.604826,-4.369418,6.8091097,0.13316862,-0.018325957,-0.18448131
1757592599722,5.604826,-4.369418,6.8091097,0.089186326,0.008552114,-0.17959438
1757592599740,5.5856724,-4.709395,6.6654577,0.089186326,0.008552114,-0.17959438
1757592599742,5.5856724,-4.709395,6.6654577,0.13683382,0.08307768,-0.15149458
1757592599759,5.777209,-4.5154643,6.6295447,0.13683382,0.08307768,-0.15149458
1757592599761,5.777209,-4.5154643,6.6295447,0.3286455,0.15149458,-0.13194689
1757592599781,5.6646814,-4.185065,6.8282633,0.3286455,0.15149458,-0.13194689
1757592599783,5.6646814,-4.185065,6.8282633,0.5290093,0.22357668,-0.1001819
1757592599801,5.884948,-3.928885,7.074866,0.5290093,0.22357668,-0.1001819
1757592599802,5.884948,-3.928885,7.074866,0.47525316,0.22968534,-0.065973446
1757592599821,6.2704144,-4.220978,7.2831616,0.47525316,0.22968534,-0.065973446
1757592599822,6.2704144,-4.220978,7.2831616,0.21135938,0.17837265,-0.06352998
1757592599840,6.691794,-5.08289,7.3047094,0.21135938,0.17837265,-0.06352998
1757592599842,6.691794,-5.08289,7.3047094,0.20158553,0.19058995,-0.06963864
1757592599859,7.1466923,-5.2002063,7.513005,0.20158553,0.19058995,-0.06963864
1757592599861,7.1466923,-5.2002063,7.513005,0.34697145,0.18692477,-0.062308256
1757592599880,7.2927384,-5.171476,7.941567,0.34697145,0.18692477,-0.062308256
1757592599882,7.2927384,-5.171476,7.941567,0.5131268,0.14172074,-0.035430185
1757592599901,7.3286514,-4.987122,8.073248,0.5131268,0.14172074,-0.035430185
1757592599903,7.3286514,-4.987122,8.073248,0.46181414,0.056199603,-0.008552114
1757592599920,7.1490865,-5.1571107,7.9487495,0.46181414,0.056199603,-0.008552114
1757592599922,7.1490865,-5.1571107,7.9487495,0.1685988,-0.030543262,-0.029321533
1757592599941,7.2664022,-5.5641246,7.821857,0.1685988,-0.030543262,-0.029321533
1757592599942,7.2664022,-5.5641246,7.821857,-0.10262536,-0.10629055,-0.04520403
1757592599961,7.9942393,-5.8825536,8.130709,-0.10262536,-0.10629055,-0.04520403
1757592599963,7.9942393,-5.8825536,8.130709,-0.05009095,-0.096516706,-0.05375614
1757592599981,8.4587145,-5.645528,8.700529,-0.05009095,-0.096516706,-0.05375614
1757592599982,8.4587145,-5.645528,8.700529,0.1600467,-0.030543262,-0.032986723
1757592600001,8.635885,-5.403713,9.478644,0.1600467,-0.030543262,-0.032986723
1757592600002,8.635885,-5.403713,9.478644,0.0842994,-0.07574729,0.021991149
1757592600019,9.050082,-5.5497594,9.809045,0.0842994,-0.07574729,0.021991149
1757592600021,9.050082,-5.5497594,9.809045,-0.21624629,-0.1685988,0.014660766
1757592600043,9.112331,-5.959168,9.751583,-0.21624629,-0.1685988,0.014660766
1757592600045,9.112331,-5.959168,9.751583,-0.36041048,-0.24678956,0.009773844
1757592600059,8.971074,-6.1890116,9.481039,-0.36041048,-0.24678956,0.009773844
1757592600061,8.971074,-6.1890116,9.481039,-0.25289822,-0.25900686,-0.028099801
1757592600079,9.315839,-6.133945,9.883265,-0.25289822,-0.25900686,-0.028099801
1757592600081,9.315839,-6.133945,9.883265,0.0012217305,-0.20158553,-0.09407325
1757592600100,9.56723,-5.884948,9.981427,0.0012217305,-0.20158553,-0.09407325
1757592600102,9.56723,-5.884948,9.981427,0.20158553,-0.13316862,-0.14294247
1757592600121,9.289502,-5.3079453,10.053253,0.20158553,-0.13316862,-0.14294247
1757592600122,9.289502,-5.3079453,10.053253,0.064751714,-0.105068825,-0.16126843
1757592600141,9.476251,-5.884948,10.25676,0.064751714,-0.105068825,-0.16126843
1757592600143,9.476251,-5.884948,10.25676,-0.4288274,-0.18081611,-0.15271631
1757592600161,9.315839,-7.788338,10.716447,-0.4288274,-0.18081611,-0.15271631
1757592600162,9.315839,-7.788338,10.716447,-0.31642818,-0.21502456,-0.15393804
1757592600182,9.002198,-6.8330517,10.726024,-0.31642818,-0.21502456,-0.15393804
1757592600184,9.002198,-6.8330517,10.726024,0.12217305,-0.20525073,-0.09162979
1757592600202,8.554482,-6.021417,10.477027,0.12217305,-0.20525073,-0.09162979
1757592600205,8.554482,-6.021417,10.477027,0.23945917,-0.2284636,-0.037873644
1757592600222,8.372523,-5.619191,9.883265,0.23945917,-0.2284636,-0.037873644
1757592600223,8.372523,-5.619191,9.883265,0.0720821,-0.25045475,0.0012217305
1757592600242,8.92319,-5.7604494,9.320627,0.0720821,-0.25045475,0.0012217305
1757592600243,8.92319,-5.7604494,9.320627,-0.018325957,-0.22968534,0.02565634
1757592600261,9.054871,-5.662287,9.270349,-0.018325957,-0.22968534,0.02565634
1757592600262,9.054871,-5.662287,9.270349,0.11362094,-0.12339478,0.036651913
1757592600283,8.722076,-5.5018754,9.198523,0.11362094,-0.12339478,0.036651913
1757592600285,8.722076,-5.5018754,9.198523,0.23579398,0.010995574,0.014660766
1757592600301,8.528147,-5.3223104,8.841787,0.23579398,0.010995574,0.014660766
1757592600302,8.528147,-5.3223104,8.841787,0.24190263,0.06719518,-0.02076942
1757592600319,8.607155,-5.41329,8.554482,0.24190263,0.06719518,-0.02076942
1757592600320,8.607155,-5.41329,8.554482,0.2125811,0.11728613,-0.04886922
1757592600339,8.554482,-5.595249,8.080431,0.2125811,0.11728613,-0.04886922
1757592600341,8.554482,-5.595249,8.080431,0.19547687,0.204029,-0.089186326
1757592600361,8.291121,-5.401319,8.032547,0.19547687,0.204029,-0.089186326
1757592600363,8.291121,-5.401319,8.032547,0.23701571,0.2724459,-0.14294247
1757592600381,7.9032598,-4.8123455,8.003817,0.23701571,0.2724459,-0.14294247
1757592600382,7.9032598,-4.8123455,8.003817,0.24801129,0.31642818,-0.18081611
1757592600400,7.48188,-4.5992613,7.608773,0.24801129,0.31642818,-0.18081611
1757592600401,7.48188,-4.5992613,7.608773,0.17592919,0.312763,-0.21135938
1757592600418,7.1993647,-4.5441947,7.225701,0.17592919,0.312763,-0.21135938
1757592600419,7.1993647,-4.5441947,7.225701,0.15149458,0.2883284,-0.21013765
1757592600438,7.0102224,-4.584896,6.9240313,0.15149458,0.2883284,-0.21013765
1757592600439,7.0102224,-4.584896,6.9240313,0.2602286,0.2773328,-0.2125811
1757592600457,6.7133417,-4.0342298,6.8761473,0.2602286,0.2773328,-0.2125811
1757592600458,6.7133417,-4.0342298,6.8761473,0.34208453,0.25900686,-0.20647246
1757592600480,6.4523735,-3.5075054,6.7133417,0.34208453,0.25900686,-0.20647246
1757592600482,6.4523735,-3.5075054,6.7133417,0.27122417,0.21135938,-0.1966986
1757592600501,6.3685765,-3.0358477,6.10282,0.27122417,0.21135938,-0.1966986
1757592600502,6.3685765,-3.0358477,6.10282,-0.0036651916,0.14782938,-0.20525073
1757592600520,6.2967505,-2.980781,6.030994,-0.0036651916,0.14782938,-0.20525073
1757592600521,6.2967505,-2.980781,6.030994,-0.15271631,0.17104226,-0.20891592
1757592600540,5.935226,-3.0813377,5.9448028,-0.15271631,0.17104226,-0.20891592
1757592600542,5.935226,-3.0813377,5.9448028,-0.18081611,0.2125811,-0.22602014
1757592600559,5.317522,-2.8898015,5.9759274,-0.18081611,0.2125811,-0.22602014
1757592600561,5.317522,-2.8898015,5.9759274,-0.073303826,0.2724459,-0.23457226
1757592600581,4.7620673,-2.4253263,5.674258,-0.073303826,0.2724459,-0.23457226
1757592600583,4.7620673,-2.4253263,5.674258,0.04520403,0.29565877,-0.23823744
1757592600600,4.3119574,-2.135628,5.291186,0.04520403,0.29565877,-0.23823744
1757592600601,4.3119574,-2.135628,5.291186,0.04642576,0.3005457,-0.21380283
1757592600620,4.1515455,-1.9680338,4.8099513,0.04642576,0.3005457,-0.21380283
1757592600622,4.1515455,-1.9680338,4.8099513,-0.032986723,0.30298916,-0.1966986
1757592600641,4.1395745,-1.9129672,4.5394063,-0.032986723,0.30298916,-0.1966986
1757592600642,4.1395745,-1.9129672,4.5394063,-0.08307768,0.31642818,-0.17348573
1757592600660,3.9025488,-2.1571758,4.1826706,-0.08307768,0.31642818,-0.17348573
1757592600661,3.9025488,-2.1571758,4.1826706,0.04520403,0.3323107,-0.13805555
1757592600681,3.6894648,-1.8794483,3.8115692,0.04520403,0.3323107,-0.13805555
1757592600683,3.6894648,-1.8794483,3.8115692,0.11728613,0.3286455,-0.1160644
1757592600701,3.490746,-1.7429788,3.715801,0.11728613,0.3286455,-0.1160644
1757592600702,3.490746,-1.7429788,3.715801,0.07086037,0.29810223,-0.09896017
1757592600721,3.1794999,-1.6448165,3.550601,0.07086037,0.29810223,-0.09896017
1757592600722,3.1794999,-1.6448165,3.550601,0.015882496,0.2773328,-0.11362094
1757592600741,2.834735,-1.1659763,3.3758245,0.015882496,0.2773328,-0.11362094
1757592600742,2.834735,-1.1659763,3.3758245,0.008552114,0.267559,-0.07574729
1757592600760,2.705448,-1.0869676,3.3973722,0.008552114,0.267559,-0.07574729
1757592600761,2.705448,-1.0869676,3.3973722,-0.032986723,0.2443461,-0.037873644
1757592600782,2.6360161,-1.3024458,3.7421372,-0.032986723,0.2443461,-0.037873644
1757592600783,2.6360161,-1.3024458,3.7421372,0.035430185,0.25778514,-0.02687807
1757592600802,2.7461493,-1.4197617,4.0078936,0.035430185,0.25778514,-0.02687807
1757592600803,2.7461493,-1.4197617,4.0078936,0.23335053,0.29077184,-0.013439035
1757592600820,3.1507695,-1.2641385,4.1539397,0.23335053,0.29077184,-0.013439035
1757592600821,3.1507695,-1.2641385,4.1539397,0.36651915,0.32375857,0.010995574
1757592600841,3.5936968,-1.520318,4.7620673,0.36651915,0.32375857,0.010995574
1757592600842,3.5936968,-1.520318,4.7620673,0.35430184,0.3408628,0.0
1757592600861,3.7828386,-1.4891934,5.494693,0.35430184,0.3408628,0.0
1757592600863,3.7828386,-1.4891934,5.494693,0.31031954,0.32986724,0.0012217305
