timestamp,ax,ay,az,gx,gy,gz
1757149080000,0.7517793,3.6631286,9.346964,-0.1563815,-0.02565634,-0.032986723
1757149080001,0.7517793,3.6631286,9.346964,-0.061086524,0.080634214,-0.27488935
1757149080032,1.0462662,3.572149,9.449914,-0.061086524,0.080634214,-0.27488935
1757149080032,1.0462662,3.572149,9.449914,-0.3115413,-0.06719518,0.27122417
1757149080093,0.4141969,3.6008794,9.097966,-0.3115413,-0.06719518,0.27122417
1757149080094,0.4141969,3.6008794,9.097966,-1.1618657,-0.32498032,0.77457714
1757149080152,1.1085154,2.432509,9.466674,-1.1618657,-0.32498032,0.77457714
1757149080152,1.1085154,2.432509,9.466674,-0.9627236,-0.6035349,1.2571607
1757149080211,0.5243302,2.2577322,10.783484,-0.9627236,-0.6035349,1.2571607
1757149080212,0.5243302,2.2577322,10.783484,-1.8411479,-1.0726794,1.6578883
1757149080272,-0.5770026,1.5921441,12.476185,-1.8411479,-1.0726794,1.6578883
1757149080272,-0.5770026,1.5921441,12.476185,-3.408628,-1.9877555,1.8973475
1757149080335,0.80684596,-6.409278,13.326127,-3.408628,-1.9877555,1.8973475
1757149080335,0.80684596,-6.409278,13.326127,-3.477045,-3.7751472,0.6658431
1757149080396,4.6782703,-6.1770406,9.871294,-3.477045,-3.7751472,0.6658431
1757149080397,4.6782703,-6.1770406,9.871294,-1.6652187,-4.3359213,-1.1801916
1757149080457,7.61835,-4.0462008,1.8483237,-1.6652187,-4.3359213,-1.1801916
1757149080458,7.61835,-4.0462008,1.8483237,-0.5204572,-3.2143729,-2.6682594
1757149080515,6.825869,-0.20590134,1.8818425,-0.5204572,-3.2143729,-2.6682594
1757149080516,6.825869,-0.20590134,1.8818425,-2.048842,-1.7531832,-2.4055874
1757149080577,8.643068,-1.9752164,-1.3814543,-2.048842,-1.7531832,-2.4055874
1757149080578,8.643068,-1.9752164,-1.3814543,-2.6597073,-0.5497787,-1.6285667
1757149080637,9.933543,-2.0278888,-2.6072857,-2.6597073,-0.5497787,-1.6285667
1757149080638,9.933543,-2.0278888,-2.6072857,-1.5283848,0.22479841,-0.79168135
1757149080696,8.990228,0.92416185,-2.5953147,-1.5283848,0.22479841,-0.79168135
1757149080697,8.990228,0.92416185,-2.5953147,-0.33475417,0.59864795,-0.12705997
1757149080757,8.640674,2.1308396,0.7781156,-0.33475417,0.59864795,-0.12705997
1757149080759,8.640674,2.1308396,0.7781156,-0.052534413,0.5900958,0.23701571
1757149080815,8.652645,2.6791117,3.8402996,-0.052534413,0.5900958,0.23701571
1757149080816,8.652645,2.6791117,3.8402996,0.75136423,0.11362094,0.103847094
1757149080877,9.227253,-1.1180922,2.5761611,0.75136423,0.11362094,0.103847094
1757149080878,9.227253,-1.1180922,2.5761611,0.47036624,-0.28710666,-0.2321288
1757149080937,10.371682,1.4915876,4.8147397,0.47036624,-0.28710666,-0.2321288
1757149080939,10.371682,1.4915876,4.8147397,0.28221974,-0.13561209,-0.37018433
1757149080996,10.163386,-1.3024458,2.8514943,0.28221974,-0.13561209,-0.37018433
1757149080997,10.163386,-1.3024458,2.8514943,1.0763446,0.23090707,-0.2883284
1757149081056,10.474632,-2.4588451,-0.22505496,1.0763446,0.23090707,-0.2883284
1757149081058,10.474632,-2.4588451,-0.22505496,1.9022343,0.3885103,-0.19792034
1757149081115,8.750807,-0.17956513,-3.9959226,1.9022343,0.3885103,-0.19792034
1757149081115,8.750807,-0.17956513,-3.9959226,6.166074,0.6609562,-0.3408628
1757149081176,5.379771,10.81461,0.842759,6.166074,0.6609562,-0.3408628
1757149081177,5.379771,10.81461,0.842759,14.212391,1.5332718,0.66339964
1757149081238,7.908048,-2.789245,3.083732,14.212391,1.5332718,0.66339964
1757149081240,7.908048,-2.789245,3.083732,2.2369885,0.3652974,0.02687807
1757149081298,7.1059904,6.277597,1.2904748,2.2369885,0.3652974,0.02687807
1757149081299,7.1059904,6.277597,1.2904748,-0.0012217305,0.35185838,-0.23945917
1757149081358,7.055712,2.6839,2.1188686,-0.0012217305,0.35185838,-0.23945917
1757149081359,7.055712,2.6839,2.1188686,-0.22113322,0.6218608,0.33841935
1757149081418,7.129933,1.7980455,2.7509377,-0.22113322,0.6218608,0.33841935
1757149081420,7.129933,1.7980455,2.7509377,-0.53878313,0.408058,0.10995574
1757149081479,6.4978633,2.1092918,1.5562311,-0.53878313,0.408058,0.10995574
1757149081480,6.4978633,2.1092918,1.5562311,-0.5815437,-0.043982297,-0.3359759
1757149081538,6.679823,2.2984335,1.4149733,-0.5815437,-0.043982297,-0.3359759
1757149081540,6.679823,2.2984335,1.4149733,-0.015882496,-0.16249016,-0.19303341
1757149081599,7.6351094,3.2441432,1.484405,-0.015882496,-0.16249016,-0.19303341
1757149081605,7.6351094,3.2441432,1.484405,-0.4166101,-0.22602014,-0.15271631
1757149081659,8.566454,3.6822822,2.27928,-0.4166101,-0.22602014,-0.15271631
1757149081660,8.566454,3.6822822,2.27928,-0.78801614,-0.35796702,-0.27122417
1757149081719,8.698134,3.5242648,2.7126305,-0.78801614,-0.35796702,-0.27122417
1757149081720,8.698134,3.5242648,2.7126305,-0.8222246,-0.6169739,-0.4654793
1757149081779,9.26556,4.24492,3.2345665,-0.8222246,-0.6169739,-0.4654793
1757149081780,9.26556,4.24492,3.2345665,-0.65240407,-0.7635816,-0.43860126
1757149081839,9.749189,4.9583917,3.0669725,-0.65240407,-0.7635816,-0.43860126
1757149081840,9.749189,4.9583917,3.0669725,-0.8381071,-0.59131753,-0.3042109
1757149081899,10.0508585,5.2648497,3.1316159,-0.8381071,-0.59131753,-0.3042109
1757149081900,10.0508585,5.2648497,3.1316159,-0.21746802,-0.45570546,-0.2846632
1757149081959,10.907983,4.4196963,3.064578,-0.21746802,-0.45570546,-0.2846632
1757149081960,10.907983,4.4196963,3.064578,0.007330383,-0.4361578,-0.23823744
1757149082018,11.200075,5.398925,2.4253263,0.007330383,-0.4361578,-0.23823744
1757149082020,11.200075,5.398925,2.4253263,-0.2932153,-0.20525073,-0.017104227
1757149082079,11.791444,6.0956373,2.8921957,-0.2932153,-0.20525073,-0.017104227
1757149082081,11.791444,6.0956373,2.8921957,-0.21746802,-0.2687807,0.11728613
1757149082140,12.744335,6.445191,2.0566192,-0.21746802,-0.2687807,0.11728613
1757149082142,12.744335,6.445191,2.0566192,-0.112399206,-0.11728613,0.09773844
1757149082199,13.06037,4.8841715,2.3894134,-0.112399206,-0.11728613,0.09773844
1757149082201,13.06037,4.8841715,2.3894134,-0.028099801,-0.2284636,0.21502456
1757149082259,12.322956,5.877765,1.4413095,-0.028099801,-0.2284636,0.21502456
1757149082261,12.322956,5.877765,1.4413095,0.40439278,-0.1001819,0.40317106
1757149082319,11.44189,4.0318356,1.769315,0.40439278,-0.1001819,0.40317106
1757149082320,11.44189,4.0318356,1.769315,0.10140363,0.11728613,0.056199603
1757149082379,10.54167,4.268862,1.2497733,0.10140363,0.11728613,0.056199603
1757149082380,10.54167,4.268862,1.2497733,-0.15149458,0.344528,0.0842994
1757149082439,10.714052,3.2728736,2.0590134,-0.15149458,0.344528,0.0842994
1757149082440,10.714052,3.2728736,2.0590134,0.35430184,0.26267207,0.2687807
1757149082500,10.43872,3.9743748,2.8538885,0.35430184,0.26267207,0.2687807
1757149082501,10.43872,3.9743748,2.8538885,-0.09896017,0.15393804,0.27977628
1757149082559,10.278308,4.3167458,2.9879637,-0.09896017,0.15393804,0.27977628
1757149082560,10.278308,4.3167458,2.9879637,-0.17592919,0.019547688,0.043982297
1757149082616,9.509769,4.3263226,3.086126,-0.17592919,0.019547688,0.043982297
1757149082617,9.509769,4.3263226,3.086126,-0.23823744,0.16493362,-0.07941248
1757149082677,9.028535,2.8395233,3.2225955,-0.23823744,0.16493362,-0.07941248
1757149082678,9.028535,2.8395233,3.2225955,0.267559,0.11484267,0.0012217305
1757149082738,8.075643,3.0621839,1.5849615,0.267559,0.11484267,0.0012217305
1757149082740,8.075643,3.0621839,1.5849615,0.07696902,0.18203785,-0.119729586
1757149082799,7.750031,3.3806129,1.6017209,0.07696902,0.18203785,-0.119729586
1757149082801,7.750031,3.3806129,1.6017209,-0.018325957,0.29565877,0.021991149
1757149082859,7.5680714,3.596091,0.82599956,-0.018325957,0.29565877,0.021991149
1757149082861,7.5680714,3.596091,0.82599956,0.3115413,0.31764993,0.39950588
1757149082920,7.4986396,1.769315,1.7717092,0.3115413,0.31764993,0.39950588
1757149082921,7.4986396,1.769315,1.7717092,-0.32620203,0.35063666,0.43371433
1757149082979,6.71813,2.3439236,1.7908629,-0.32620203,0.35063666,0.43371433
1757149082981,6.71813,2.3439236,1.7908629,-0.33353242,0.17715092,0.0842994
1757149083039,4.6782703,2.078167,1.5634137,-0.33353242,0.17715092,0.0842994
1757149083040,4.6782703,2.078167,1.5634137,0.087964594,-0.14782938,-0.39828414
1757149083099,5.094861,3.1052797,-0.045489833,0.087964594,-0.14782938,-0.39828414
1757149083101,5.094861,3.1052797,-0.045489833,-0.16371189,-0.21868975,-0.5534439
1757149083160,8.319851,3.4596214,1.376666,-0.16371189,-0.21868975,-0.5534439
1757149083162,8.319851,3.4596214,1.376666,0.015882496,-0.1441642,-0.037873644
1757149083219,10.649409,3.040636,3.3925838,0.015882496,-0.1441642,-0.037873644
1757149083221,10.649409,3.040636,3.3925838,0.90041536,0.04642576,0.81122905
1757149083278,9.981427,4.4077253,2.0350714,0.90041536,0.04642576,0.81122905
1757149083280,9.981427,4.4077253,2.0350714,-0.44959682,-0.16371189,-0.087964594
1757149083337,9.040505,2.741361,1.5562311,-0.44959682,-0.16371189,-0.087964594
1757149083338,9.040505,2.741361,1.5562311,-0.5143485,-0.036651913,-0.29932398
1757149083395,8.813056,2.6719291,1.9297266,-0.5143485,-0.036651913,-0.29932398
1757149083395,8.813056,2.6719291,1.9297266,-0.3200934,-0.061086524,-0.07574729
1757149083456,9.093178,3.3614593,1.4460979,-0.3200934,-0.061086524,-0.07574729
1757149083457,9.093178,3.3614593,1.4460979,-0.06963864,-0.10629055,0.07696902
1757149083518,8.75799,3.1364043,1.5562311,-0.06963864,-0.10629055,0.07696902
1757149083520,8.75799,3.1364043,1.5562311,-0.44226643,0.0720821,0.042760566
1757149083575,8.413225,3.3063924,1.6639702,-0.44226643,0.0720821,0.042760566
1757149083577,8.413225,3.3063924,1.6639702,-0.31520647,0.22602014,0.16982053
1757149083638,7.8050976,3.1555579,1.5346833,-0.31520647,0.22602014,0.16982053
1757149083639,7.8050976,3.1555579,1.5346833,-0.11362094,0.4361578,0.26145032
1757149083700,6.931214,2.336741,1.0773908,-0.11362094,0.4361578,0.26145032
1757149083701,6.931214,2.336741,1.0773908,-0.45937067,0.48380527,0.1600467
1757149083759,6.373365,1.6112977,2.1212628,-0.45937067,0.48380527,0.1600467
1757149083759,6.373365,1.6112977,2.1212628,-0.29077184,0.31520647,0.08552113
1757149083817,7.1347213,1.2186487,2.3415294,-0.29077184,0.31520647,0.08552113
1757149083818,7.1347213,1.2186487,2.3415294,-0.44837508,0.118507855,-0.20280726
1757149083878,8.109161,1.400608,3.7110126,-0.44837508,0.118507855,-0.20280726
1757149083880,8.109161,1.400608,3.7110126,-0.25900686,0.043982297,-0.20647246
1757149083938,7.8625584,3.1196449,3.289633,-0.25900686,0.043982297,-0.20647246
1757149083940,7.8625584,3.1196449,3.289633,-0.13072516,-0.13439035,-0.56688297
1757149083997,8.269572,2.9759927,2.8778305,-0.13072516,-0.13439035,-0.56688297
1757149083998,8.269572,2.9759927,2.8778305,-0.5510005,-0.056199603,-0.71837753
1757149084060,8.827422,3.3159695,3.3806129,-0.5510005,-0.056199603,-0.71837753
1757149084061,8.827422,3.3159695,3.3806129,-0.09407325,-0.039095376,-0.52778757
1757149084121,9.107543,4.120421,3.3686419,-0.09407325,-0.039095376,-0.52778757
1757149084123,9.107543,4.120421,3.3686419,-0.07452556,-0.0842994,-0.5180137
1757149084177,8.66701,4.7907977,3.7086184,-0.07452556,-0.0842994,-0.5180137
1757149084178,8.66701,4.7907977,3.7086184,-0.14538592,-0.16371189,-0.47036624
1757149084239,8.848969,4.1706996,3.6966474,-0.14538592,-0.16371189,-0.47036624
1757149084241,8.848969,4.1706996,3.6966474,0.34574974,-0.34208453,-0.25045475
1757149084300,9.306262,4.9559975,3.7948096,0.34574974,-0.34208453,-0.25045475
1757149084303,9.306262,4.9559975,3.7948096,-0.16126843,-0.26511553,-0.04153884
1757149084361,10.608707,5.118803,4.1491513,-0.16126843,-0.26511553,-0.04153884
1757149084363,10.608707,5.118803,4.1491513,0.18692477,-0.18448131,0.10873401
1757149084420,11.506534,5.681441,4.235343,0.18692477,-0.18448131,0.10873401
1757149084421,11.506534,5.681441,4.235343,-0.2602286,0.08307768,0.09773844
1757149084480,12.8448925,5.595249,4.5322237,-0.2602286,0.08307768,0.09773844
1757149084482,12.8448925,5.595249,4.5322237,0.43004912,0.042760566,0.22479841
1757149084541,12.126632,5.753267,3.9839516,0.43004912,0.042760566,0.22479841
1757149084542,12.126632,5.753267,3.9839516,0.040317107,0.15882497,0.087964594
1757149084600,11.080365,5.45878,4.271256,0.040317107,0.15882497,0.087964594
1757149084602,11.080365,5.45878,4.271256,0.112399206,0.28710666,0.18936823
1757149084663,11.209652,4.747702,4.5154643,0.112399206,0.28710666,0.18936823
1757149084665,11.209652,4.747702,4.5154643,-0.058643065,0.18203785,0.13683382
1757149084720,10.905589,4.4101195,4.1635165,-0.058643065,0.18203785,0.13683382
1757149084721,10.905589,4.4101195,4.1635165,0.3286455,-0.07941248,0.015882496
1757149084781,10.120291,4.608838,4.1012673,0.3286455,-0.07941248,0.015882496
1757149084782,10.120291,4.608838,4.1012673,0.15149458,-0.17837265,0.014660766
1757149084840,9.526528,4.177882,3.8379054,0.15149458,-0.17837265,0.014660766
1757149084841,9.526528,4.177882,3.8379054,0.0012217305,-0.029321533,-0.12095132
1757149084901,8.719683,3.928885,4.213795,0.0012217305,-0.029321533,-0.12095132
1757149084903,8.719683,3.928885,4.213795,0.18325958,0.10873401,-0.11484267
1757149084962,8.4826565,4.048595,3.2202013,0.18325958,0.10873401,-0.11484267
1757149084963,8.4826565,4.048595,3.2202013,0.40683624,0.047647487,-0.007330383
1757149085021,8.269572,3.526659,3.2321723,0.40683624,0.047647487,-0.007330383
1757149085023,8.269572,3.526659,3.2321723,0.29077184,0.030543262,0.11484267
1757149085080,7.93199,3.8474822,2.6886885,0.29077184,0.030543262,0.11484267
1757149085082,7.93199,3.8474822,2.6886885,0.38728857,0.02687807,0.04886922
1757149085141,7.419631,3.9576154,2.2936451,0.38728857,0.02687807,0.04886922
1757149085143,7.419631,3.9576154,2.2936451,0.34697145,0.096516706,0.119729586
1757149085201,7.1634517,3.6894648,1.8315643,0.34697145,0.096516706,0.119729586
1757149085203,7.1634517,3.6894648,1.8315643,0.41783184,0.172264,0.36285394
1757149085258,6.919243,3.0621839,1.2186487,0.41783184,0.172264,0.36285394
1757149085259,6.919243,3.0621839,1.2186487,0.17592919,0.14538592,0.44959682
1757149085322,5.4420204,2.1930888,-0.009576807,0.17592919,0.14538592,0.44959682
1757149085323,5.4420204,2.1930888,-0.009576807,-0.2932153,0.15760323,0.29932398
1757149085381,5.7149596,1.6831238,1.3359646,-0.2932153,0.15760323,0.29932398
1757149085382,5.7149596,1.6831238,1.3359646,-0.24678956,0.14294247,-0.017104227
1757149085442,7.0581064,3.098097,1.2258313,-0.24678956,0.14294247,-0.017104227
1757149085444,7.0581064,3.098097,1.2258313,0.38240165,-0.043982297,-0.267559
1757149085502,9.629479,4.4603977,2.2337902,0.38240165,-0.043982297,-0.267559
1757149085504,9.629479,4.4603977,2.2337902,0.6976081,-0.105068825,0.073303826
1757149085561,9.998186,4.8602295,2.4732103,0.6976081,-0.105068825,0.073303826
1757149085562,9.998186,4.8602295,2.4732103,0.56688297,0.019547688,0.5155703
1757149085621,9.0237465,3.3758245,1.4101849,0.56688297,0.019547688,0.5155703
1757149085623,9.0237465,3.3758245,1.4101849,-0.16615535,0.096516706,0.07696902
1757149085682,8.908825,3.3758245,1.496376,-0.16615535,0.096516706,0.07696902
1757149085683,8.908825,3.3758245,1.496376,-0.15149458,0.12217305,-0.18081611
1757149085742,8.954314,4.2281604,1.8890251,-0.15149458,0.12217305,-0.18081611
1757149085744,8.954314,4.2281604,1.8890251,0.27366763,0.13927728,-0.02443461
1757149085800,9.028535,4.1276035,2.4540567,0.27366763,0.13927728,-0.02443461
1757149085802,9.028535,4.1276035,2.4540567,0.25167647,0.13805555,0.10262536
1757149085861,8.504205,3.7373488,2.123657,0.25167647,0.13805555,0.10262536
1757149085863,8.504205,3.7373488,2.123657,-0.15393804,0.08674286,0.08307768
1757149085922,8.166622,3.4093432,2.207454,-0.15393804,0.08674286,0.08307768
1757149085923,8.166622,3.4093432,2.207454,-0.41783184,0.21868975,0.052534413
1757149085983,7.6375036,3.3494883,1.7788919,-0.41783184,0.21868975,0.052534413
1757149085984,7.6375036,3.3494883,1.7788919,-0.09773844,0.31764993,-0.018325957
1757149086042,7.0221934,3.0789435,1.7525556,-0.09773844,0.31764993,-0.018325957
1757149086044,7.0221934,3.0789435,1.7525556,-0.27366763,0.52778757,-0.02076942
1757149086102,6.9168487,3.13401,1.7142484,-0.27366763,0.52778757,-0.02076942
1757149086103,6.9168487,3.13401,1.7142484,-0.29565877,0.27488935,-0.0842994
1757149086162,6.50744,3.2154129,2.5713725,-0.29565877,0.27488935,-0.0842994
1757149086163,6.50744,3.2154129,2.5713725,-0.22235495,0.014660766,0.06841691
1757149086221,7.505822,3.3183637,2.4277205,-0.22235495,0.014660766,0.06841691
1757149086223,7.505822,3.3183637,2.4277205,-0.18325958,-0.056199603,0.103847094
1757149086282,7.309498,3.1004913,2.705448,-0.18325958,-0.056199603,0.103847094
1757149086283,7.309498,3.1004913,2.705448,-0.5693264,-0.05131268,-0.028099801
1757149086340,8.623915,2.9137435,3.1651347,-0.5693264,-0.05131268,-0.028099801
1757149086341,8.623915,2.9137435,3.1651347,0.007330383,-0.080634214,0.0036651916
1757149086400,8.37013,3.3782187,3.1962593,0.007330383,-0.080634214,0.0036651916
1757149086402,8.37013,3.3782187,3.1962593,-0.23701571,-0.13316862,-0.14294247
1757149086462,8.166622,3.4476504,4.3526587,-0.23701571,-0.13316862,-0.14294247
1757149086463,8.166622,3.4476504,4.3526587,-0.18203785,-0.17837265,-0.028099801
1757149086521,8.602366,3.8786068,4.0821137,-0.18203785,-0.17837265,-0.028099801
1757149086525,8.602366,3.8786068,4.0821137,0.111177474,-0.24312437,0.13072516
1757149086581,9.459491,3.1028855,4.096479,0.111177474,-0.24312437,0.13072516
1757149086583,9.459491,3.1028855,4.096479,0.14905111,-0.1966986,0.15760323
1757149086643,10.311827,3.478775,3.775656,0.14905111,-0.1966986,0.15760323
1757149086645,10.311827,3.478775,3.775656,-0.0842994,-0.1441642,0.13683382
1757149086700,10.484209,3.8977604,3.8546648,-0.0842994,-0.1441642,0.13683382
1757149086701,10.484209,3.8977604,3.8546648,0.16737708,-0.11362094,0.13805555
1757149086763,10.730812,3.976769,3.4093432,0.16737708,-0.11362094,0.13805555
1757149086764,10.730812,3.976769,3.4093432,0.1563815,-0.030543262,0.09773844
1757149086822,11.307815,3.7972038,3.2345665,0.1563815,-0.030543262,0.09773844
1757149086823,11.307815,3.7972038,3.2345665,0.1160644,0.004886922,0.119729586
1757149086881,12.272678,3.6176388,3.6272156,0.1160644,0.004886922,0.119729586
1757149086882,12.272678,3.6176388,3.6272156,-0.12461651,0.096516706,0.21502456
1757149086942,12.531252,3.9360676,4.5633483,-0.12461651,0.096516706,0.21502456
1757149086943,12.531252,3.9360676,4.5633483,-0.11362094,0.032986723,0.2883284
1757149087002,12.861651,4.498705,3.9815574,-0.11362094,0.032986723,0.2883284
1757149087003,12.861651,4.498705,3.9815574,0.0036651916,0.0842994,0.15027285
1757149087062,11.841722,3.4452562,3.5075054,0.0036651916,0.0842994,0.15027285
1757149087064,11.841722,3.4452562,3.5075054,0.112399206,0.095294975,-0.087964594
1757149087122,11.145009,3.289633,4.2664676,0.112399206,0.095294975,-0.087964594
1757149087123,11.145009,3.289633,4.2664676,-0.24801129,0.040317107,-0.1441642
1757149087183,10.783484,3.5051112,4.4795513,-0.24801129,0.040317107,-0.1441642
1757149087184,10.783484,3.5051112,4.4795513,-0.3286455,-0.16371189,-0.012217305
1757149087242,10.378864,3.7708676,5.554548,-0.3286455,-0.16371189,-0.012217305
1757149087243,10.378864,3.7708676,5.554548,-0.032986723,-0.3371976,-0.065973446
1757149087301,10.204087,3.6296098,3.2130187,-0.032986723,-0.3371976,-0.065973446
1757149087302,10.204087,3.6296098,3.2130187,-0.5497787,-0.007330383,-0.41538838
1757149087362,9.0429,2.9616275,3.6104562,-0.5497787,-0.007330383,-0.41538838
1757149087364,9.0429,2.9616275,3.6104562,0.25778514,0.018325957,-0.18692477
1757149087421,8.815451,2.695871,2.1930888,0.25778514,0.018325957,-0.18692477
1757149087422,8.815451,2.695871,2.1930888,0.09896017,0.0061086523,-0.20647246
1757149087481,8.166622,2.8083985,1.9153614,0.09896017,0.0061086523,-0.20647246
1757149087482,8.166622,2.8083985,1.9153614,-0.062308256,-0.028099801,-0.07452556
1757149087541,7.091625,2.5498247,1.3934253,-0.062308256,-0.028099801,-0.07452556
1757149087542,7.091625,2.5498247,1.3934253,-0.2565634,0.09285152,0.012217305
1757149087601,6.0836663,2.1499932,1.1252748,-0.2565634,0.09285152,0.012217305
1757149087603,6.0836663,2.1499932,1.1252748,-0.7257079,0.3005457,-0.09162979
1757149087663,4.936844,2.3415294,1.5179238,-0.7257079,0.3005457,-0.09162979
1757149087664,4.936844,2.3415294,1.5179238,-0.96761054,0.41172317,-0.45448375
1757149087723,4.2305546,1.9512744,2.0135236,-0.96761054,0.41172317,-0.45448375
1757149087724,4.2305546,1.9512744,2.0135236,0.09773844,0.06719518,-0.6743952
1757149087783,7.8146744,2.0231004,1.5873557,0.09773844,0.06719518,-0.6743952
1757149087784,7.8146744,2.0231004,1.5873557,0.22724187,-0.037873644,-0.7147123
1757149087842,8.003817,4.000711,4.321534,0.22724187,-0.037873644,-0.7147123
1757149087844,8.003817,4.000711,4.321534,0.48991394,0.11728613,-0.17470746
1757149087902,8.7125,6.26802,3.2680852,0.48991394,0.11728613,-0.17470746
1757149087903,8.7125,6.26802,3.2680852,1.0604621,0.3371976,0.39950588
1757149087963,8.394072,4.1635165,3.9959226,1.0604621,0.3371976,0.39950588
1757149087964,8.394072,4.1635165,3.9959226,-0.1282817,0.2284636,-0.013439035
1757149088023,7.884106,3.2824504,3.4691982,-0.1282817,0.2284636,-0.013439035
1757149088024,7.884106,3.2824504,3.4691982,0.0842994,-0.16982053,0.028099801
1757149088082,8.422802,4.630386,2.6623523,0.0842994,-0.16982053,0.028099801
1757149088084,8.422802,4.630386,2.6623523,0.42394048,-0.2602286,0.35796702
1757149088137,8.549694,4.1611223,2.5450363,0.42394048,-0.2602286,0.35796702
1757149088138,8.549694,4.1611223,2.5450363,-0.040317107,-0.02443461,0.3005457
1757149088198,8.523358,3.715801,2.980781,-0.040317107,-0.02443461,0.3005457
1757149088198,8.523358,3.715801,2.980781,-0.32375857,0.04642576,0.1600467
1757149088262,8.743625,4.039018,2.7868507,-0.32375857,0.04642576,0.1600467
1757149088263,8.743625,4.039018,2.7868507,-0.13927728,0.02321288,0.14660765
1757149088322,8.535329,4.268862,2.719813,-0.13927728,0.02321288,0.14660765
1757149088324,8.535329,4.268862,2.719813,-0.27977628,0.10262536,0.13194689
1757149088383,8.042124,4.1276035,1.9632454,-0.27977628,0.10262536,0.13194689
1757149088384,8.042124,4.1276035,1.9632454,-0.018325957,0.15271631,0.26511553
1757149088441,7.5824366,2.8299465,2.0733786,-0.018325957,0.15271631,0.26511553
1757149088443,7.5824366,2.8299465,2.0733786,-0.37018433,0.28344148,0.2773328
1757149088501,6.579266,2.6551697,1.7884687,-0.37018433,0.28344148,0.2773328
1757149088503,6.579266,2.6551697,1.7884687,-0.42394048,0.21991149,0.14049901
1757149088562,5.628768,1.5107412,2.1547816,-0.42394048,0.21991149,0.14049901
1757149088563,5.628768,1.5107412,2.1547816,-0.24190263,-0.064751714,0.21013765
1757149088622,6.6486983,1.4532804,2.846706,-0.24190263,-0.064751714,0.21013765
1757149088624,6.6486983,1.4532804,2.846706,-0.8197812,-0.14538592,0.06352998
1757149088683,7.690176,2.2960393,3.667917,-0.8197812,-0.14538592,0.06352998
1757149088684,7.690176,2.2960393,3.667917,-0.5522222,-0.2773328,-0.052534413
1757149088743,8.061277,3.1914709,3.7325604,-0.5522222,-0.2773328,-0.052534413
1757149088744,8.061277,3.1914709,3.7325604,-0.5497787,-0.25167647,-0.14049901
1757149088803,8.872911,2.9783869,4.000711,-0.5497787,-0.25167647,-0.14049901
1757149088804,8.872911,2.9783869,4.000711,-0.27977628,-0.11728613,-0.19303341
1757149088863,9.059659,3.1842883,3.3662477,-0.27977628,-0.11728613,-0.19303341
1757149088864,9.059659,3.1842883,3.3662477,-0.19792034,0.065973446,-0.11728613
1757149088924,9.210494,2.6886885,4.7524905,-0.19792034,0.065973446,-0.11728613
1757149088925,9.210494,2.6886885,4.7524905,-0.25411993,0.13072516,-0.1282817
1757149088983,9.895236,3.3566709,4.7285485,-0.25411993,0.13072516,-0.1282817
1757149088985,9.895236,3.3566709,4.7285485,-0.014660766,-0.017104227,-0.18325958
1757149089043,9.744401,3.4141316,4.8219223,-0.014660766,-0.017104227,-0.18325958
1757149089044,9.744401,3.4141316,4.8219223,0.07574729,-0.12339478,-0.19914207
1757149089103,9.78989,3.5075054,4.7022123,0.07574729,-0.12339478,-0.19914207
1757149089104,9.78989,3.5075054,4.7022123,0.04153884,-0.12705997,-0.1563815
1757149089159,10.409989,3.9312792,4.4819455,0.04153884,-0.12705997,-0.1563815
1757149089159,10.409989,3.9312792,4.4819455,-0.064751714,-0.043982297,-0.18203785
1757149089219,10.105926,4.0462008,4.4819455,-0.064751714,-0.043982297,-0.18203785
1757149089219,10.105926,4.0462008,4.4819455,0.15149458,-0.02076942,-0.09773844
1757149089281,10.927136,3.6032736,4.7309427,0.15149458,-0.02076942,-0.09773844
1757149089282,10.927136,3.6032736,4.7309427,0.105068825,0.02565634,-0.014660766
1757149089343,11.417948,4.010288,4.8937483,0.105068825,0.02565634,-0.014660766
1757149089344,11.417948,4.010288,4.8937483,0.07941248,-0.064751714,0.11728613
1757149089403,11.990162,4.3263226,5.463568,0.07941248,-0.064751714,0.11728613
1757149089405,11.990162,4.3263226,5.463568,0.2724459,-0.1001819,0.17592919
1757149089463,11.743559,4.4723687,4.220978,0.2724459,-0.1001819,0.17592919
1757149089467,11.743559,4.4723687,4.220978,-0.009773844,0.015882496,0.07696902
1757149089524,11.042058,3.3973722,4.441244,-0.009773844,0.015882496,0.07696902
1757149089525,11.042058,3.3973722,4.441244,0.23701571,0.15760323,0.12950343
1757149089582,11.106702,3.1675289,4.4460325,0.23701571,0.15760323,0.12950343
1757149089583,11.106702,3.1675289,4.4460325,0.17348573,0.1600467,0.10629055
1757149089643,10.879252,3.2920272,4.7022123,0.17348573,0.1600467,0.10629055
1757149089644,10.879252,3.2920272,4.7022123,-0.18203785,0.07819075,0.17470746
1757149089703,9.974244,3.6894648,4.8841715,-0.18203785,0.07819075,0.17470746
1757149089704,9.974244,3.6894648,4.8841715,0.1966986,-0.14905111,0.1441642
1757149089763,9.471462,3.5913026,3.8546648,0.1966986,-0.14905111,0.1441642
1757149089764,9.471462,3.5913026,3.8546648,0.172264,0.058643065,-0.1881465
1757149089823,8.094796,3.3734303,3.5984852,0.172264,0.058643065,-0.1881465
1757149089824,8.094796,3.3734303,3.5984852,-0.376293,0.6169739,-0.376293
1757149089883,8.015787,1.9871874,4.1060557,-0.376293,0.6169739,-0.376293
1757149089885,8.015787,1.9871874,4.1060557,-0.17715092,0.7538077,-0.034208454
1757149089938,6.9527617,2.528277,3.0358477,-0.17715092,0.7538077,-0.034208454
1757149089939,6.9527617,2.528277,3.0358477,-0.004886922,0.29565877,0.21868975
1757149089999,6.2512608,2.528277,2.918532,-0.004886922,0.29565877,0.21868975
1757149089999,6.2512608,2.528277,2.918532,-0.22968534,0.05375614,0.267559
1757149090059,5.1930237,2.2146366,1.7860745,-0.22968534,0.05375614,0.267559
1757149090060,5.1930237,2.2146366,1.7860745,-0.07696902,-0.2443461,0.17715092
1757149090121,3.7732618,1.4700398,1.6879122,-0.07696902,-0.2443461,0.17715092
1757149090122,3.7732618,1.4700398,1.6879122,-0.5338962,-0.17470746,-0.22235495
1757149090183,6.4499793,1.7764976,2.0590134,-0.5338962,-0.17470746,-0.22235495
1757149090185,6.4499793,1.7764976,2.0590134,-0.41905355,-0.08307768,-0.35796702
1757149090243,8.963891,1.9057846,4.4196963,-0.41905355,-0.08307768,-0.35796702
1757149090245,8.963891,1.9057846,4.4196963,-0.22602014,0.047647487,0.061086524
1757149090303,10.156203,3.8067808,4.223372,-0.22602014,0.047647487,0.061086524
1757149090304,10.156203,3.8067808,4.223372,-0.3005457,0.028099801,0.06963864
1757149090364,8.75799,3.181894,4.8506527,-0.3005457,0.028099801,0.06963864
1757149090366,8.75799,3.181894,4.8506527,-0.23823744,0.15882497,0.08552113
1757149090423,8.497022,2.2601264,4.012682,-0.23823744,0.15882497,0.08552113
1757149090425,8.497022,2.2601264,4.012682,0.02687807,0.1441642,0.112399206
1757149090483,8.015787,2.15957,4.27365,0.02687807,0.1441642,0.112399206
1757149090484,8.015787,2.15957,4.27365,0.0061086523,0.26267207,0.18570304
1757149090544,8.248025,3.2489316,4.050989,0.0061086523,0.26267207,0.18570304
1757149090547,8.248025,3.2489316,4.050989,-0.15515977,0.41416663,0.23090707
1757149090603,7.57286,3.8163576,4.807557,-0.15515977,0.41416663,0.23090707
1757149090605,7.57286,3.8163576,4.807557,-0.089186326,0.43127087,0.24190263
1757149090663,8.111555,3.7588966,4.9775453,-0.089186326,0.43127087,0.24190263
1757149090665,8.111555,3.7588966,4.9775453,-0.14538592,0.27488935,0.13805555
1757149090723,8.133103,3.9600096,5.5856724,-0.14538592,0.27488935,0.13805555
1757149090724,8.133103,3.9600096,5.5856724,-0.3213151,0.2443461,-0.047647487
1757149090783,8.377312,3.5889084,4.7381253,-0.3213151,0.2443461,-0.047647487
1757149090784,8.377312,3.5889084,4.7381253,-0.5009095,0.23701571,-0.3042109
1757149090843,8.185776,1.6567876,5.777209,-0.5009095,0.23701571,-0.3042109
1757149090844,8.185776,1.6567876,5.777209,-0.28710666,0.33108896,-0.11728613
1757149090903,8.836999,0.12449849,4.355053,-0.28710666,0.33108896,-0.11728613
1757149090905,8.836999,0.12449849,4.355053,-0.38240165,0.10140363,-0.49602258
1757149090961,7.1347213,-1.6065093,6.208165,-0.38240165,0.10140363,-0.49602258
1757149090961,7.1347213,-1.6065093,6.208165,-0.77946407,0.089186326,-0.13072516
1757149091023,7.0940194,1.484405,5.401319,-0.77946407,0.089186326,-0.13072516
1757149091025,7.0940194,1.484405,5.401319,-0.22113322,0.018325957,-0.081855945
1757149091079,6.9407907,2.1787236,5.803545,-0.22113322,0.018325957,-0.081855945
1757149091080,6.9407907,2.1787236,5.803545,0.0720821,0.172264,-0.017104227
1757149091139,6.71813,2.6120741,4.000711,0.0720821,0.172264,-0.017104227
1757149091140,6.71813,2.6120741,4.000711,-0.41172317,0.3371976,-0.17837265
1757149091199,6.813898,0.89782566,4.7070007,-0.41172317,0.3371976,-0.17837265
1757149091200,6.813898,0.89782566,4.7070007,-0.35430184,0.28099802,-0.1600467
1757149091262,6.4906807,1.0749966,5.0493712,-0.35430184,0.28099802,-0.1600467
1757149091264,6.4906807,1.0749966,5.0493712,-0.3408628,0.19303341,-0.35308012
1757149091323,6.1243677,1.4293385,6.033388,-0.3408628,0.19303341,-0.35308012
1757149091324,6.1243677,1.4293385,6.033388,0.5363397,-0.103847094,-0.46914452
1757149091382,6.1746464,2.480393,5.614403,0.5363397,-0.103847094,-0.46914452
1757149091384,6.1746464,2.480393,5.614403,0.12583824,-0.2761111,-0.453262
1757149091443,6.481104,2.882619,5.6982,0.12583824,-0.2761111,-0.453262
1757149091446,6.481104,2.882619,5.6982,0.05497787,-0.28710666,-0.344528
1757149091502,7.089231,3.016694,5.070919,0.05497787,-0.28710666,-0.344528
1757149091504,7.089231,3.016694,5.070919,0.013439035,-0.22113322,-0.21502456
1757149091563,7.529764,3.0454245,5.8634,0.013439035,-0.22113322,-0.21502456
1757149091564,7.529764,3.0454245,5.8634,0.3286455,-0.22113322,-0.16982053
1757149091618,7.8865004,3.8762126,6.045359,0.3286455,-0.22113322,-0.16982053
1757149091618,7.8865004,3.8762126,6.045359,0.2883284,-0.29443705,-0.15760323
1757149091678,8.121132,3.655946,6.0405707,0.2883284,-0.29443705,-0.15760323
1757149091678,8.121132,3.655946,6.0405707,0.22113322,-0.35063666,-0.20280726
1757149091742,8.293514,4.0581717,6.2584434,0.22113322,-0.35063666,-0.20280726
1757149091744,8.293514,4.0581717,6.2584434,0.37018433,-0.4129449,-0.25411993
1757149091803,8.307879,3.8043866,5.887342,0.37018433,-0.4129449,-0.25411993
1757149091804,8.307879,3.8043866,5.887342,0.3200934,-0.35430184,-0.21135938
1757149091863,9.504981,4.6519337,6.021417,0.3200934,-0.35430184,-0.21135938
1757149091864,9.504981,4.6519337,6.021417,0.3042109,-0.17470746,-0.19181168
1757149091921,10.414778,5.779603,7.153875,0.3042109,-0.17470746,-0.19181168
1757149091923,10.414778,5.779603,7.153875,0.44959682,-0.12217305,-0.19547687
1757149091982,11.118672,6.3422403,6.4380083,0.44959682,-0.12217305,-0.19547687
1757149091983,11.118672,6.3422403,6.4380083,0.88086766,-0.22968534,0.1441642
1757149092042,11.499351,6.0357823,7.4507556,0.88086766,-0.22968534,0.1441642
1757149092043,11.499351,6.0357823,7.4507556,0.63163465,-0.2919936,0.45814893
1757149092102,10.79785,5.4779334,5.3438582,0.63163465,-0.2919936,0.45814893
1757149092103,10.79785,5.4779334,5.3438582,0.5558874,-0.1441642,0.39584067
1757149092164,9.758766,5.2289367,4.9440265,0.5558874,-0.1441642,0.39584067
1757149092165,9.758766,5.2289367,4.9440265,0.88453287,0.29810223,0.48380527
1757149092223,9.890448,3.8426938,3.572149,0.88453287,0.29810223,0.48380527
1757149092224,9.890448,3.8426938,3.572149,0.8527679,0.2883284,0.39584067
1757149092282,8.995016,4.3478703,3.9384618,0.8527679,0.2883284,0.39584067
1757149092284,8.995016,4.3478703,3.9384618,0.77946407,-0.103847094,0.46914452
1757149092343,9.114726,3.2034419,3.241749,0.77946407,-0.103847094,0.46914452
1757149092344,9.114726,3.2034419,3.241749,0.36896262,-0.3042109,0.4166101
1757149092403,9.121908,4.369418,3.083732,0.36896262,-0.3042109,0.4166101
1757149092404,9.121908,4.369418,3.083732,-0.17592919,-0.06719518,0.20647246
1757149092463,8.719683,3.9145198,3.502717,-0.17592919,-0.06719518,0.20647246
1757149092464,8.719683,3.9145198,3.502717,0.080634214,0.22113322,0.18936823
1757149092520,8.750807,3.6607344,2.6743233,0.080634214,0.22113322,0.18936823
1757149092521,8.750807,3.6607344,2.6743233,-0.74036866,0.39461896,-0.02076942
1757149092578,7.36217,3.0023289,3.229778,-0.74036866,0.39461896,-0.02076942
1757149092579,7.36217,3.0023289,3.229778,-0.8026769,0.4202753,-0.14172074
1757149092642,5.9807158,3.2872388,3.13401,-0.8026769,0.4202753,-0.14172074
1757149092643,5.9807158,3.2872388,3.13401,-0.13072516,0.20158553,0.02443461
1757149092700,5.7508726,2.7389667,2.767697,-0.13072516,0.20158553,0.02443461
1757149092703,5.7508726,2.7389667,2.767697,-0.3567453,0.18081611,0.052534413
1757149092764,4.4196963,2.7724855,2.1691468,-0.3567453,0.18081611,0.052534413
1757149092765,4.4196963,2.7724855,2.1691468,-0.43371433,0.021991149,-0.16126843
1757149092823,5.023035,2.6599581,1.982399,-0.43371433,0.021991149,-0.16126843
1757149092824,5.023035,2.6599581,1.982399,-0.58276546,0.062308256,-0.4801401
1757149092883,7.955932,2.8323407,3.2465374,-0.58276546,0.062308256,-0.4801401
1757149092885,7.955932,2.8323407,3.2465374,0.2406809,0.065973446,-0.1881465
1757149092943,9.198523,3.5625722,5.2169657,0.2406809,0.065973446,-0.1881465
1757149092945,9.198523,3.5625722,5.2169657,0.17837265,0.09773844,0.32498032
1757149093003,8.767567,3.6750996,4.4364557,0.17837265,0.09773844,0.32498032
1757149093005,8.767567,3.6750996,4.4364557,-0.23823744,-0.111177474,0.07574729
1757149093063,8.078036,3.5242648,4.015076,-0.23823744,-0.111177474,0.07574729
1757149093064,8.078036,3.5242648,4.015076,-0.44226643,-0.064751714,-0.12583824
1757149093122,8.765172,3.7086184,3.3566709,-0.44226643,-0.064751714,-0.12583824
1757149093124,8.765172,3.7086184,3.3566709,0.30665436,-0.07086037,0.0012217305
1757149093183,8.556877,3.3399115,3.8019924,0.30665436,-0.07086037,0.0012217305
1757149093184,8.556877,3.3399115,3.8019924,-0.08307768,-0.010995574,-0.012217305
1757149093242,8.154651,3.3806129,3.4955344,-0.08307768,-0.010995574,-0.012217305
1757149093244,8.154651,3.3806129,3.4955344,-0.3323107,0.087964594,-0.096516706
1757149093303,7.690176,3.6631286,3.833117,-0.3323107,0.087964594,-0.096516706
1757149093305,7.690176,3.6631286,3.833117,-0.032986723,0.095294975,-0.029321533
1757149093363,7.299921,3.7948096,3.0550013,-0.032986723,0.095294975,-0.029321533
1757149093365,7.299921,3.7948096,3.0550013,-0.32742378,0.14905111,0.02565634
1757149093424,6.4164605,3.0693667,3.0262709,-0.32742378,0.14905111,0.02565634
1757149093425,6.4164605,3.0693667,3.0262709,-0.44837508,0.12705997,-0.15271631
1757149093483,6.126762,2.4229321,2.8419175,-0.44837508,0.12705997,-0.15271631
1757149093484,6.126762,2.4229321,2.8419175,-0.23090707,0.08552113,-0.31520647
1757149093541,6.2488666,2.2505496,3.7900212,-0.23090707,0.08552113,-0.31520647
1757149093543,6.2488666,2.2505496,3.7900212,-0.3286455,0.08674286,-0.1001819
1757149093603,6.619968,3.074155,3.9264908,-0.3286455,0.08674286,-0.1001819
1757149093604,6.619968,3.074155,3.9264908,-0.14782938,-0.004886922,-0.013439035
1757149093663,6.897695,3.2872388,4.405331,-0.14782938,-0.004886922,-0.013439035
1757149093663,6.897695,3.2872388,4.405331,-0.23335053,0.004886922,0.04886922
1757149093719,7.345411,3.4739866,4.5657425,-0.23335053,0.004886922,0.04886922
1757149093719,7.345411,3.4739866,4.5657425,-0.21135938,0.037873644,0.08552113
1757149093781,7.5704656,3.0071173,4.7141833,-0.21135938,0.037873644,0.08552113
1757149093782,7.5704656,3.0071173,4.7141833,0.30298916,-0.05497787,0.037873644
1757149093843,8.101978,2.815581,5.121197,0.30298916,-0.05497787,0.037873644
1757149093845,8.101978,2.815581,5.121197,0.13805555,-0.1160644,-0.002443461
1757149093902,8.394072,3.8379054,4.9536033,0.13805555,-0.1160644,-0.002443461
1757149093903,8.394072,3.8379054,4.9536033,0.30543262,-0.2443461,0.043982297
1757149093963,8.920795,3.9480386,4.9440265,0.30543262,-0.2443461,0.043982297
1757149093965,8.920795,3.9480386,4.9440265,0.20280726,-0.21502456,-0.02076942
1757149094023,9.3733,3.7181952,4.6782703,0.20280726,-0.21502456,-0.02076942
1757149094025,9.3733,3.7181952,4.6782703,-0.09162979,-0.11362094,-0.09773844
1757149094083,9.153033,3.5458126,5.3965306,-0.09162979,-0.11362094,-0.09773844
1757149094085,9.153033,3.5458126,5.3965306,0.25167647,-0.081855945,-0.09285152
1757149094144,10.048465,4.5322237,5.12838,0.25167647,-0.081855945,-0.09285152
1757149094146,10.048465,4.5322237,5.12838,0.21991149,-0.047647487,-0.080634214
1757149094203,10.94629,4.7165775,6.007052,0.21991149,-0.047647487,-0.080634214
1757149094204,10.94629,4.7165775,6.007052,0.036651913,-0.1001819,-0.029321533
1757149094263,11.791444,5.303157,6.114791,0.036651913,-0.1001819,-0.029321533
1757149094264,11.791444,5.303157,6.114791,0.6047566,-0.18203785,0.14294247
1757149094323,11.686098,5.020641,5.7269306,0.6047566,-0.18203785,0.14294247
1757149094324,11.686098,5.020641,5.7269306,0.2883284,-0.11362094,0.18692477
1757149094383,11.288661,5.08289,5.3582234,0.2883284,-0.11362094,0.18692477
1757149094384,11.288661,5.08289,5.3582234,0.13927728,0.07574729,0.2284636
1757149094441,10.7116585,4.285621,5.0182467,0.13927728,0.07574729,0.2284636
1757149094442,10.7116585,4.285621,5.0182467,0.05131268,0.10140363,0.28344148
1757149094503,10.726024,3.229778,5.5258174,0.05131268,0.10140363,0.28344148
1757149094505,10.726024,3.229778,5.5258174,0.71959925,0.004886922,0.4654793
1757149094563,10.304645,4.256891,5.145139,0.71959925,0.004886922,0.4654793
1757149094564,10.304645,4.256891,5.145139,-0.0012217305,-0.087964594,0.36896262
1757149094619,9.813833,3.9935284,4.7668557,-0.0012217305,-0.087964594,0.36896262
1757149094619,9.813833,3.9935284,4.7668557,0.25289822,-0.014660766,0.15027285
1757149094680,9.267955,4.010288,3.311181,0.25289822,-0.014660766,0.15027285
1757149094682,9.267955,4.010288,3.311181,-0.119729586,0.09285152,-0.07086037
1757149094743,8.822633,3.2609026,4.036624,-0.119729586,0.09285152,-0.07086037
1757149094745,8.822633,3.2609026,4.036624,0.23823744,0.15271631,-0.02076942
1757149094804,8.441956,2.956839,3.169923,0.23823744,0.15271631,-0.02076942
1757149094805,8.441956,2.956839,3.169923,-0.47158796,0.05009095,-0.04886922
1757149094861,7.9942393,2.8778305,3.1148565,-0.47158796,0.05009095,-0.04886922
1757149094862,7.9942393,2.8778305,3.1148565,-0.44348818,-0.03176499,-0.010995574
1757149094920,6.9862804,2.741361,3.2848446,-0.44348818,-0.03176499,-0.010995574
1757149094920,6.9862804,2.741361,3.2848446,-0.5204572,0.119729586,-0.04642576
1757149094980,6.55293,3.2848446,2.3343468,-0.5204572,0.119729586,-0.04642576
1757149094981,6.55293,3.2848446,2.3343468,-0.31764993,0.012217305,-0.04520403
1757149095043,5.386954,2.15957,2.4301147,-0.31764993,0.012217305,-0.04520403
1757149095044,5.386954,2.15957,2.4301147,-0.36896262,-0.013439035,-0.30665436
1757149095104,3.8857894,2.0231004,1.5729905,-0.36896262,-0.013439035,-0.30665436
1757149095106,3.8857894,2.0231004,1.5729905,-0.44104472,0.0061086523,-0.61453044
1757149095163,5.2720323,1.9177556,1.9560628,-0.44104472,0.0061086523,-0.61453044
1757149095164,5.2720323,1.9177556,1.9560628,0.21013765,0.0012217305,-0.28344148
1757149095224,8.817844,3.2489316,4.039018,0.21013765,0.0012217305,-0.28344148
1757149095225,8.817844,3.2489316,4.039018,0.2687807,0.118507855,0.33964106
1757149095283,10.333375,4.5058875,4.390966,0.2687807,0.118507855,0.33964106
1757149095284,10.333375,4.5058875,4.390966,0.5131268,-0.034208454,0.5522222
1757149095344,9.358934,3.016694,3.679888,0.5131268,-0.034208454,0.5522222
1757149095345,9.358934,3.016694,3.679888,-0.28099802,-0.03176499,0.11728613
1757149095404,8.437167,2.542642,3.3854012,-0.28099802,-0.03176499,0.11728613
1757149095405,8.437167,2.542642,3.3854012,-0.32375857,-0.080634214,-0.0720821
1757149095464,8.714894,3.3255463,3.3542767,-0.32375857,-0.080634214,-0.0720821
1757149095465,8.714894,3.3255463,3.3542767,0.062308256,0.062308256,0.040317107
1757149095522,8.887277,3.775656,3.383007,0.062308256,0.062308256,0.040317107
1757149095524,8.887277,3.775656,3.383007,-0.25411993,0.17470746,-0.02076942
1757149095581,8.719683,3.2225955,3.845088,-0.25411993,0.17470746,-0.02076942
1757149095582,8.719683,3.2225955,3.845088,-0.34208453,0.14660765,-0.06963864
1757149095645,8.295909,3.3135753,3.6152446,-0.34208453,0.14660765,-0.06963864
1757149095647,8.295909,3.3135753,3.6152446,-0.3200934,0.087964594,-0.09285152
1757149095705,7.723695,3.4261026,3.406949,-0.3200934,0.087964594,-0.09285152
1757149095706,7.723695,3.4261026,3.406949,-0.3555236,0.15760323,-0.004886922
1757149095765,7.0964136,2.7461493,3.301604,-0.3555236,0.15760323,-0.004886922
1757149095766,7.0964136,2.7461493,3.301604,-0.29077184,0.20647246,0.029321533
1757149095824,6.4380083,2.2625206,3.5338416,-0.29077184,0.20647246,0.029321533
1757149095825,6.4380083,2.2625206,3.5338416,-0.14538592,0.17959438,-0.015882496
1757149095885,6.0166287,1.6448165,3.7828386,-0.14538592,0.17959438,-0.015882496
1757149095886,6.0166287,1.6448165,3.7828386,-0.18448131,0.09773844,0.04642576
1757149095944,6.019023,1.4508862,3.7804444,-0.18448131,0.09773844,0.04642576
1757149095946,6.019023,1.4508862,3.7804444,-0.44348818,0.10140363,0.008552114
1757149096002,6.5840545,2.0111294,4.6806645,-0.44348818,0.10140363,0.008552114
1757149096004,6.5840545,2.0111294,4.6806645,-0.44226643,0.19914207,-0.1563815
1757149096059,6.8162923,2.9975405,4.807557,-0.44226643,0.19914207,-0.1563815
1757149096060,6.8162923,2.9975405,4.807557,0.43004912,0.04153884,-0.15882497
1757149096121,7.807492,2.9041667,5.521029,0.43004912,0.04153884,-0.15882497
1757149096121,7.807492,2.9041667,5.521029,0.33841935,-0.087964594,-0.13072516
1757149096179,8.274361,3.3566709,5.379771,0.33841935,-0.087964594,-0.13072516
1757149096179,8.274361,3.3566709,5.379771,0.42760566,-0.28221974,-0.040317107
1757149096245,8.635885,3.3518825,4.8219223,0.42760566,-0.28221974,-0.040317107
1757149096246,8.635885,3.3518825,4.8219223,0.36285394,-0.29077184,0.009773844
1757149096304,9.054871,3.6415808,3.9384618,0.36285394,-0.29077184,0.009773844
1757149096306,9.054871,3.6415808,3.9384618,0.16737708,-0.12461651,0.052534413
1757149096365,9.045294,4.5394063,4.6902413,0.16737708,-0.12461651,0.052534413
1757149096366,9.045294,4.5394063,4.6902413,-0.12217305,0.14049901,0.07574729
1757149096425,10.556035,4.414908,5.3678,-0.12217305,0.14049901,0.07574729
1757149096427,10.556035,4.414908,5.3678,-0.0036651916,0.10629055,0.030543262
1757149096485,10.371682,4.2185836,5.449203,-0.0036651916,0.10629055,0.030543262
1757149096486,10.371682,4.2185836,5.449203,0.5290093,-0.0720821,0.07819075
1757149096543,10.453085,4.2784386,5.2720323,0.5290093,-0.0720821,0.07819075
1757149096545,10.453085,4.2784386,5.2720323,0.1966986,-0.18448131,-0.04886922
1757149096603,10.757148,4.1922474,4.807557,0.1966986,-0.18448131,-0.04886922
1757149096605,10.757148,4.1922474,4.807557,0.07452556,-0.07696902,0.040317107
1757149096667,11.312603,4.0581717,5.2002063,0.07452556,-0.07696902,0.040317107
1757149096669,11.312603,4.0581717,5.2002063,0.32620203,-0.0720821,0.17959438
1757149096723,11.647791,4.5561657,5.719748,0.32620203,-0.0720821,0.17959438
1757149096724,11.647791,4.5561657,5.719748,0.34208453,-0.018325957,0.18936823
1757149096783,11.501745,4.8243165,5.7269306,0.34208453,-0.018325957,0.18936823
1757149096785,11.501745,4.8243165,5.7269306,-0.408058,0.032986723,0.009773844
1757149096844,10.709264,4.280833,6.2943563,-0.408058,0.032986723,0.009773844
1757149096846,10.709264,4.280833,6.2943563,0.36774087,-0.2003638,-0.02076942
1757149096903,9.840169,3.98874,5.145139,0.36774087,-0.2003638,-0.02076942
1757149096905,9.840169,3.98874,5.145139,0.039095376,-0.25289822,-0.08674286
1757149096964,9.114726,3.6152446,4.6519337,0.039095376,-0.25289822,-0.08674286
1757149096965,9.114726,3.6152446,4.6519337,-0.15515977,-0.20647246,-0.15393804
1757149097023,8.511387,3.1028855,3.7253778,-0.15515977,-0.20647246,-0.15393804
1757149097024,8.511387,3.1028855,3.7253778,-0.18570304,0.037873644,-0.15027285
1757149097083,8.695741,3.2441432,3.383007,-0.18570304,0.037873644,-0.15027285
1757149097085,8.695741,3.2441432,3.383007,0.1001819,0.040317107,0.015882496
1757149097144,8.343793,3.3806129,3.1364043,0.1001819,0.040317107,0.015882496
1757149097146,8.343793,3.3806129,3.1364043,-0.02076942,-0.10995574,-0.05375614
1757149097200,7.2352777,2.873042,2.7605145,-0.02076942,-0.10995574,-0.05375614
1757149097200,7.2352777,2.873042,2.7605145,-0.344528,-0.052534413,-0.2773328
1757149097260,6.1387334,2.846706,2.1092918,-0.344528,-0.052534413,-0.2773328
1757149097260,6.1387334,2.846706,2.1092918,0.13439035,-0.15149458,-0.3323107
1757149097322,5.398925,2.3343468,1.7046716,0.13439035,-0.15149458,-0.3323107
1757149097323,5.398925,2.3343468,1.7046716,-0.4886922,-0.043982297,-0.41538838
1757149097382,4.829105,2.657564,1.910573,-0.4886922,-0.043982297,-0.41538838
1757149097384,4.829105,2.657564,1.910573,-0.22113322,-0.07086037,-0.38728857
1757149097444,5.604826,3.2393548,2.0638018,-0.22113322,-0.07086037,-0.38728857
1757149097446,5.604826,3.2393548,2.0638018,-0.111177474,-0.08674286,-0.32742378
1757149097505,7.1873937,3.857059,2.8323407,-0.111177474,-0.08674286,-0.32742378
1757149097507,7.1873937,3.857059,2.8323407,-0.06841691,-0.119729586,-0.13439035
1757149097565,9.557653,4.546589,3.335123,-0.06841691,-0.119729586,-0.13439035
1757149097567,9.557653,4.546589,3.335123,0.1563815,-0.25778514,0.118507855
1757149097624,9.074024,5.243302,3.8522706,0.1563815,-0.25778514,0.118507855
1757149097625,9.074024,5.243302,3.8522706,-0.07696902,-0.1881465,0.2003638
1757149097684,8.798691,4.537012,2.8658595,-0.07696902,-0.1881465,0.2003638
1757149097686,8.798691,4.537012,2.8658595,0.31031954,-0.18936823,-0.04642576
1757149097744,8.185776,3.6272156,2.743755,0.31031954,-0.18936823,-0.04642576
1757149097745,8.185776,3.6272156,2.743755,0.13316862,-0.06963864,-0.14905111
1757149097803,8.248025,4.381389,2.5306711,0.13316862,-0.06963864,-0.14905111
1757149097805,8.248025,4.381389,2.5306711,0.07941248,0.030543262,-0.032986723
1757149097865,8.154651,4.6399627,2.4875755,0.07941248,0.030543262,-0.032986723
1757149097867,8.154651,4.6399627,2.4875755,0.12339478,0.2125811,0.16493362
1757149097924,8.422802,4.074931,2.5067291,0.12339478,0.2125811,0.16493362
1757149097925,8.422802,4.074931,2.5067291,-0.16615535,0.27488935,0.21502456
1757149097984,8.441956,4.1276035,2.8682537,-0.16615535,0.27488935,0.21502456
1757149097985,8.441956,4.1276035,2.8682537,-0.28710666,0.26145032,0.16249016
1757149098044,8.374918,4.685453,2.8778305,-0.28710666,0.26145032,0.16249016
1757149098046,8.374918,4.685453,2.8778305,-0.042760566,0.28099802,0.1881465
1757149098104,8.066066,4.5513773,2.882619,-0.042760566,0.28099802,0.1881465
1757149098105,8.066066,4.5513773,2.882619,-0.096516706,0.3371976,0.26633725
1757149098166,7.9224133,3.952827,2.7006595,-0.096516706,0.3371976,0.26633725
1757149098168,7.9224133,3.952827,2.7006595,-0.23701571,0.35308012,0.25167647
1757149098225,7.3166804,3.6774938,2.597709,-0.23701571,0.35308012,0.25167647
1757149098227,7.3166804,3.6774938,2.597709,-0.22968534,0.36285394,0.07086037
1757149098284,6.7253127,2.60968,2.695871,-0.22968534,0.36285394,0.07086037
1757149098285,6.7253127,2.60968,2.695871,-0.24312437,0.32498032,-0.2321288
1757149098342,5.717354,2.4827871,3.6343982,-0.24312437,0.32498032,-0.2321288
1757149098343,5.717354,2.4827871,3.6343982,-0.32742378,0.15882497,-0.3359759
1757149098400,6.0142345,2.6264393,3.7900212,-0.32742378,0.15882497,-0.3359759
1757149098400,6.0142345,2.6264393,3.7900212,0.13683382,-0.19425514,-0.27977628
1757149098464,6.6846113,2.8443117,4.048595,0.13683382,-0.19425514,-0.27977628
1757149098465,6.6846113,2.8443117,4.048595,-0.1966986,-0.25900686,-0.20647246
1757149098524,7.443573,3.5553896,4.0653543,-0.1966986,-0.25900686,-0.20647246
1757149098526,7.443573,3.5553896,4.0653543,-0.23701571,-0.20647246,-0.043982297
1757149098584,8.171411,3.833117,4.498705,-0.23701571,-0.20647246,-0.043982297
1757149098586,8.171411,3.833117,4.498705,0.18936823,-0.043982297,0.06719518
1757149098644,8.556877,4.086902,4.426879,0.18936823,-0.043982297,0.06719518
1757149098646,8.556877,4.086902,4.426879,0.18081611,0.04153884,-0.02076942
1757149098704,8.722076,4.7979803,4.122815,0.18081611,0.04153884,-0.02076942
1757149098706,8.722076,4.7979803,4.122815,-0.14538592,0.11484267,-0.06841691
1757149098765,9.174581,4.3143516,5.00867,-0.14538592,0.11484267,-0.06841691
1757149098767,9.174581,4.3143516,5.00867,-0.09162979,0.12339478,-0.1282817
1757149098825,9.174581,4.572925,4.642357,-0.09162979,0.12339478,-0.1282817
1757149098826,9.174581,4.572925,4.642357,-0.16615535,-0.02565634,-0.27855456
1757149098884,8.659827,4.819528,4.9799395,-0.16615535,-0.02565634,-0.27855456
1757149098886,8.659827,4.819528,4.9799395,-0.12705997,-0.12339478,-0.22724187
1757149098945,8.643068,5.281609,5.245696,-0.12705997,-0.12339478,-0.22724187
1757149098946,8.643068,5.281609,5.245696,0.02443461,-0.061086524,-0.13805555
1757149099004,9.232041,4.9799395,5.1020436,0.02443461,-0.061086524,-0.13805555
1757149099006,9.232041,4.9799395,5.1020436,-0.042760566,-0.010995574,-0.07574729
1757149099066,9.52174,5.329493,4.7860093,-0.042760566,-0.010995574,-0.07574729
1757149099067,9.52174,5.329493,4.7860093,-0.18081611,0.05375614,0.008552114
1757149099126,10.670957,5.233725,5.231331,-0.18081611,0.05375614,0.008552114
1757149099127,10.670957,5.233725,5.231331,0.14782938,-0.06719518,0.11362094
1757149099187,10.939108,5.638345,5.0613422,0.14782938,-0.06719518,0.11362094
1757149099188,10.939108,5.638345,5.0613422,0.02443461,-0.23701571,0.065973446
1757149099248,10.3453455,5.8203044,5.8466406,0.02443461,-0.23701571,0.065973446
1757149099249,10.3453455,5.8203044,5.8466406,0.05009095,-0.10751228,-0.035430185
1757149099307,10.3453455,6.1123967,4.96318,0.05009095,-0.10751228,-0.035430185
1757149099308,10.3453455,6.1123967,4.96318,0.14660765,-0.0036651916,-0.16493362
1757149099367,8.90643,4.9081135,5.4563856,0.14660765,-0.0036651916,-0.16493362
1757149099368,8.90643,4.9081135,5.4563856,-0.13927728,0.267559,-0.22968534
1757149099427,8.379706,4.6495395,5.08289,-0.13927728,0.267559,-0.22968534
1757149099428,8.379706,4.6495395,5.08289,0.5925393,0.007330383,0.02565634
1757149099485,9.167398,4.2425256,5.080496,0.5925393,0.007330383,0.02565634
1757149099487,9.167398,4.2425256,5.080496,-0.0061086523,0.061086524,0.2003638
1757149099547,8.516175,4.709395,4.6232033,-0.0061086523,0.061086524,0.2003638
1757149099548,8.516175,4.709395,4.6232033,-0.11728613,-0.07819075,0.29565877
1757149099606,8.66701,3.715801,5.197812,-0.11728613,-0.07819075,0.29565877
1757149099608,8.66701,3.715801,5.197812,0.2125811,-0.07086037,0.47891834
1757149099664,8.444349,4.572925,3.8522706,0.2125811,-0.07086037,0.47891834
1757149099665,8.444349,4.572925,3.8522706,0.2773328,-0.080634214,0.44959682
1757149099723,8.288726,4.074931,3.6487634,0.2773328,-0.080634214,0.44959682
1757149099724,8.288726,4.074931,3.6487634,-0.24678956,0.14294247,0.22357668
1757149099782,7.2544312,3.6056678,3.3327289,-0.24678956,0.14294247,0.22357668
1757149099782,7.2544312,3.6056678,3.3327289,0.02321288,0.11484267,0.09896017
1757149099844,6.6965823,3.157952,3.2513258,0.02321288,0.11484267,0.09896017
1757149099845,6.6965823,3.157952,3.2513258,0.19303341,-0.008552114,-0.002443461
1757149099902,6.2943563,3.86903,2.2146366,0.19303341,-0.008552114,-0.002443461
1757149099902,6.2943563,3.86903,2.2146366,-0.010995574,-0.111177474,0.12217305
1757149099962,5.5976434,2.5953147,2.4133554,-0.010995574,-0.111177474,0.12217305
1757149099963,5.5976434,2.5953147,2.4133554,-0.05375614,-0.14905111,0.061086524
1757149100024,5.267244,2.7509377,1.4341269,-0.05375614,-0.14905111,0.061086524
1757149100025,5.267244,2.7509377,1.4341269,-0.36651915,-0.059864793,-0.12705997
1757149100083,6.0166287,2.3199813,2.2864625,-0.36651915,-0.059864793,-0.12705997
1757149100084,6.0166287,2.3199813,2.2864625,-0.2321288,-0.02321288,-0.23579398
1757149100146,8.121132,3.9839516,3.0214825,-0.2321288,-0.02321288,-0.23579398
1757149100148,8.121132,3.9839516,3.0214825,0.021991149,-0.1001819,-0.15271631
1757149100207,8.822633,4.805163,4.8602295,0.021991149,-0.1001819,-0.15271631
1757149100208,8.822633,4.805163,4.8602295,0.5925393,-0.14660765,0.3359759
1757149100267,9.119514,4.6351743,3.064578,0.5925393,-0.14660765,0.3359759
1757149100268,9.119514,4.6351743,3.064578,-0.09773844,-0.15882497,0.24801129
1757149100328,8.444349,3.4955344,2.870648,-0.09773844,-0.15882497,0.24801129
1757149100329,8.444349,3.4955344,2.870648,-0.3811799,-0.15393804,0.080634214
1757149100387,8.846576,3.6032736,2.0494366,-0.3811799,-0.15393804,0.080634214
1757149100388,8.846576,3.6032736,2.0494366,-0.111177474,-0.039095376,0.1160644
1757149100446,8.746018,3.857059,2.9783869,-0.111177474,-0.039095376,0.1160644
1757149100447,8.746018,3.857059,2.9783869,0.058643065,0.13927728,0.02565634
1757149100507,8.602366,3.8786068,2.980781,0.058643065,0.13927728,0.02565634
1757149100508,8.602366,3.8786068,2.980781,0.17348573,0.12950343,0.04153884
1757149100568,8.3390045,3.6631286,2.2697031,0.17348573,0.12950343,0.04153884
1757149100569,8.3390045,3.6631286,2.2697031,-0.27000242,0.119729586,0.08307768
1757149100629,8.099585,3.3734303,2.6120741,-0.27000242,0.119729586,0.08307768
1757149100631,8.099585,3.3734303,2.6120741,-0.51923543,0.20891592,0.13439035
1757149100688,7.824251,2.9400797,2.4636335,-0.51923543,0.20891592,0.13439035
1757149100690,7.824251,2.9400797,2.4636335,-0.24556783,0.20891592,0.14294247
1757149100748,7.6015906,2.6240451,2.9712043,-0.24556783,0.20891592,0.14294247
1757149100750,7.6015906,2.6240451,2.9712043,-0.5216789,0.29077184,0.013439035
1757149100809,7.261614,2.3295584,3.6248214,-0.5216789,0.29077184,0.013439035
1757149100811,7.261614,2.3295584,3.6248214,-0.55833083,0.2968805,-0.065973446
1757149100870,6.5720835,2.0614076,4.1683054,-0.55833083,0.2968805,-0.065973446
1757149100871,6.5720835,2.0614076,4.1683054,-0.43127087,0.105068825,-0.15149458
1757149100927,6.7468605,2.1978772,4.5394063,-0.43127087,0.105068825,-0.15149458
1757149100928,6.7468605,2.1978772,4.5394063,-1.3939945,0.10629055,-0.3481932
1757149100983,6.727707,2.669535,5.097255,-1.3939945,0.10629055,-0.3481932
1757149100984,6.727707,2.669535,5.097255,-0.1881465,0.034208454,-0.1563815
1757149101047,8.0684595,2.837129,4.1276035,-0.1881465,0.034208454,-0.1563815
1757149101048,8.0684595,2.837129,4.1276035,-0.24923302,0.019547688,-0.19792034
1757149101109,7.9008656,3.016694,4.656722,-0.24923302,0.019547688,-0.19792034
1757149101111,7.9008656,3.016694,4.656722,-0.44593164,0.03176499,-0.19914207
1757149101168,8.121132,3.0095115,5.2504845,-0.44593164,0.03176499,-0.19914207
1757149101170,8.121132,3.0095115,5.2504845,0.058643065,-0.036651913,-0.21502456
1757149101228,7.819463,3.3518825,4.855441,0.058643065,-0.036651913,-0.21502456
1757149101230,7.819463,3.3518825,4.855441,0.07086037,-0.105068825,-0.3323107
1757149101288,8.066066,3.3183637,5.0637364,0.07086037,-0.105068825,-0.3323107
1757149101290,8.066066,3.3183637,5.0637364,0.3848451,-0.11484267,-0.23579398
1757149101349,8.346188,3.7948096,4.9583917,0.3848451,-0.11484267,-0.23579398
1757149101351,8.346188,3.7948096,4.9583917,0.49235737,-0.103847094,-0.17959438
1757149101409,9.375694,3.8235402,4.663905,0.49235737,-0.103847094,-0.17959438
1757149101411,9.375694,3.8235402,4.663905,0.5900958,-0.204029,-0.10140363
1757149101469,9.502586,4.9344497,3.0502129,0.5900958,-0.204029,-0.10140363
1757149101471,9.502586,4.9344497,3.0502129,0.33841935,-0.39461896,-0.0012217305
1757149101528,10.189722,4.331111,4.39336,0.33841935,-0.39461896,-0.0012217305
1757149101529,10.189722,4.331111,4.39336,-0.02565634,-0.46181414,0.04520403
1757149101590,10.242394,5.1906295,3.9576154,-0.02565634,-0.46181414,0.04520403
1757149101592,10.242394,5.1906295,3.9576154,0.20280726,-0.35185838,0.035430185
1757149101650,10.745177,4.9703627,5.365406,0.20280726,-0.35185838,0.035430185
1757149101652,10.745177,4.9703627,5.365406,-0.11728613,-0.042760566,-0.10262536
1757149101709,11.386824,5.4061074,4.6830587,-0.11728613,-0.042760566,-0.10262536
1757149101711,11.386824,5.4061074,4.6830587,0.042760566,0.012217305,-0.057421334
1757149101767,10.55843,5.2720323,4.9440265,0.042760566,0.012217305,-0.057421334
1757149101768,10.55843,5.2720323,4.9440265,0.4654793,-0.11362094,0.103847094
1757149101825,10.582372,4.285621,3.7086184,0.4654793,-0.11362094,0.103847094
1757149101826,10.582372,4.285621,3.7086184,-0.07086037,-0.12461651,0.24678956
1757149101884,10.3932295,4.709395,4.6399627,-0.07086037,-0.12461651,0.24678956
1757149101885,10.3932295,4.709395,4.6399627,-0.062308256,0.06352998,0.48747048
1757149101945,11.044453,4.120421,4.6830587,-0.062308256,0.06352998,0.48747048
1757149101945,11.044453,4.120421,4.6830587,0.13805555,0.22479841,0.2919936
1757149102006,10.271125,3.857059,4.7740383,0.13805555,0.22479841,0.2919936
1757149102007,10.271125,3.857059,4.7740383,-0.10995574,0.18081611,0.043982297
1757149102066,9.459491,3.7445314,3.787627,-0.10995574,0.18081611,0.043982297
1757149102066,9.459491,3.7445314,3.787627,-0.1563815,0.07696902,0.0
1757149102127,8.487445,3.2154129,3.004723,-0.1563815,0.07696902,0.0
1757149102127,8.487445,3.2154129,3.004723,-0.33964106,0.1966986,-0.02443461
1757149102186,8.133103,2.9735985,3.572149,-0.33964106,0.1966986,-0.02443461
1757149102186,8.133103,2.9735985,3.572149,-0.1881465,0.23823744,-0.029321533
1757149102246,8.185776,2.6767175,3.0550013,-0.1881465,0.23823744,-0.029321533
1757149102247,8.185776,2.6767175,3.0550013,-0.28710666,0.052534413,-0.037873644
1757149102306,7.4507556,3.2489316,3.7014358,-0.28710666,0.052534413,-0.037873644
1757149102306,7.4507556,3.2489316,3.7014358,0.12217305,-0.12461651,-0.0720821
1757149102368,7.2687964,3.110068,2.906561,0.12217305,-0.12461651,-0.0720821
1757149102369,7.2687964,3.110068,2.906561,0.4373795,-0.267559,-0.07941248
1757149102427,6.4284315,2.6312277,2.2002714,0.4373795,-0.267559,-0.07941248
1757149102428,6.4284315,2.6312277,2.2002714,0.09285152,-0.26267207,-0.31520647
1757149102487,5.437232,2.633622,2.2098482,0.09285152,-0.26267207,-0.31520647
1757149102488,5.437232,2.633622,2.2098482,0.72692966,-0.27366763,-0.31887165
1757149102549,5.305551,3.5625722,1.2497733,0.72692966,-0.27366763,-0.31887165
1757149102550,5.305551,3.5625722,1.2497733,0.22357668,-0.16126843,-0.30543262
1757149102611,6.385336,3.4572272,2.0231004,0.22357668,-0.16126843,-0.30543262
1757149102612,6.385336,3.4572272,2.0231004,0.19058995,-0.004886922,-0.047647487
1757149102671,8.542512,3.8714242,2.3391352,0.19058995,-0.004886922,-0.047647487
1757149102673,8.542512,3.8714242,2.3391352,-0.056199603,-0.065973446,0.21135938
1757149102730,9.325416,4.537012,3.0813377,-0.056199603,-0.065973446,0.21135938
1757149102731,9.325416,4.537012,3.0813377,-0.10751228,-0.064751714,0.3726278
1757149102789,9.287108,4.4915223,2.7389667,-0.10751228,-0.064751714,0.3726278
1757149102790,9.287108,4.4915223,2.7389667,-0.05497787,0.081855945,0.29077184
1757149102848,8.851364,4.1371803,2.5689783,-0.05497787,0.081855945,0.29077184
1757149102849,8.851364,4.1371803,2.5689783,0.047647487,0.059864793,0.12583824
1757149102909,8.918402,4.0701427,2.9017725,0.047647487,0.059864793,0.12583824
1757149102911,8.918402,4.0701427,2.9017725,0.25045475,0.043982297,0.09773844
1757149102969,8.889671,4.3646297,2.822764,0.25045475,0.043982297,0.09773844
1757149102970,8.889671,4.3646297,2.822764,0.41905355,-0.06841691,0.09773844
1757149103026,8.789114,4.003105,2.731784,0.41905355,-0.06841691,0.09773844
1757149103026,8.789114,4.003105,2.731784,0.8038987,-0.25045475,0.17470746
1757149103091,8.693346,3.7181952,1.4820108,0.8038987,-0.25045475,0.17470746
1757149103093,8.693346,3.7181952,1.4820108,0.74036866,-0.39706242,0.19058995
1757149103151,8.310274,3.277662,0.7230489,0.74036866,-0.39706242,0.19058995
1757149103152,8.310274,3.277662,0.7230489,-0.009773844,-0.23090707,0.20891592
1757149103205,8.094796,3.2106245,0.7781156,-0.009773844,-0.23090707,0.20891592
1757149103206,8.094796,3.2106245,0.7781156,-0.1160644,0.03176499,0.27122417
1757149103266,7.8912888,2.9999347,0.89543146,-0.1160644,0.03176499,0.27122417
1757149103267,7.8912888,2.9999347,0.89543146,0.09040806,0.13072516,0.28344148
1757149103326,7.587225,2.4516625,1.8124107,0.09040806,0.13072516,0.28344148
1757149103327,7.587225,2.4516625,1.8124107,-0.3921755,0.15393804,0.1441642
1757149103386,7.21373,2.96881,1.6041151,-0.3921755,0.15393804,0.1441642
1757149103386,7.21373,2.96881,1.6041151,-0.7623598,0.28955013,-0.13927728
1757149103446,7.321469,3.040636,2.2385786,-0.7623598,0.28955013,-0.13927728
1757149103446,7.321469,3.040636,2.2385786,-0.8210029,0.48624873,-0.21624629
1757149103509,7.896077,2.8419175,2.4396915,-0.8210029,0.48624873,-0.21624629
1757149103510,7.896077,2.8419175,2.4396915,-0.29932398,0.42271876,-0.16126843
1757149103570,8.152257,2.9616275,2.2840683,-0.29932398,0.42271876,-0.16126843
1757149103571,8.152257,2.9616275,2.2840683,-0.59498274,0.34574974,-0.21013765
1757149103630,7.97748,3.040636,2.5833437,-0.59498274,0.34574974,-0.21013765
1757149103631,7.97748,3.040636,2.5833437,-0.22479841,0.18081611,-0.057421334
1757149103691,8.59279,2.966416,3.3423057,-0.22479841,0.18081611,-0.057421334
1757149103692,8.59279,2.966416,3.3423057,-0.36041048,0.11484267,-0.02687807
1757149103751,8.707711,2.6479871,3.53863,-0.36041048,0.11484267,-0.02687807
1757149103752,8.707711,2.6479871,3.53863,-0.28710666,0.02321288,-0.04520403
1757149103811,9.14585,3.1771057,4.3981485,-0.28710666,0.02321288,-0.04520403
1757149103812,9.14585,3.1771057,4.3981485,-0.40439278,-0.013439035,-0.06719518
1757149103871,9.701305,3.5482068,4.960786,-0.40439278,-0.013439035,-0.06719518
1757149103872,9.701305,3.5482068,4.960786,-0.32620203,0.0061086523,-0.16126843
1757149103931,10.04607,4.1419687,4.357447,-0.32620203,0.0061086523,-0.16126843
1757149103933,10.04607,4.1419687,4.357447,-0.10262536,0.007330383,-0.4569272
1757149103977,10.323798,4.675876,4.5777135,-0.10262536,0.007330383,-0.4569272
1757149103979,10.323798,4.675876,4.5777135,-0.014660766,-0.052534413,-0.6206391
1757149104035,9.40203,4.570531,3.679888,-0.014660766,-0.052534413,-0.6206391
1757149104037,9.40203,4.570531,3.679888,0.27122417,-0.20158553,-0.48624873
1757149104095,8.6813755,4.189853,3.9839516,0.27122417,-0.20158553,-0.48624873
1757149104096,8.6813755,4.189853,3.9839516,0.05375614,-0.09285152,-0.36774087
1757149104156,8.736442,5.0613422,3.9384618,0.05375614,-0.09285152,-0.36774087
1757149104158,8.736442,5.0613422,3.9384618,0.07086037,-0.040317107,-0.21991149
1757149104215,9.5385,5.391742,4.31914,0.07086037,-0.040317107,-0.21991149
1757149104216,9.5385,5.391742,4.31914,0.1966986,-0.034208454,0.034208454
1757149104277,10.9582615,5.5521536,4.201824,0.1966986,-0.034208454,0.034208454
1757149104279,10.9582615,5.5521536,4.201824,0.22968534,-0.019547688,0.1600467
1757149104337,11.446678,5.6886234,3.8977604,0.22968534,-0.019547688,0.1600467
1757149104338,11.446678,5.6886234,3.8977604,0.1600467,-0.013439035,0.17104226
1757149104395,11.020511,5.0757074,4.0773253,0.1600467,-0.013439035,0.17104226
1757149104397,11.020511,5.0757074,4.0773253,-0.111177474,0.105068825,0.13927728
1757149104456,10.366894,4.3382936,3.5745432,-0.111177474,0.105068825,0.13927728
1757149104456,10.366894,4.3382936,3.5745432,0.06352998,0.11484267,0.12217305
1757149104518,10.539276,3.9384618,3.8139634,0.06352998,0.11484267,0.12217305
1757149104520,10.539276,3.9384618,3.8139634,0.008552114,0.062308256,0.22968534
1757149104577,9.859323,4.0174704,4.357447,0.008552114,0.062308256,0.22968534
1757149104578,9.859323,4.0174704,4.357447,-0.17715092,0.018325957,0.20769419
1757149104634,9.545682,4.462792,4.685453,-0.17715092,0.018325957,0.20769419
1757149104636,9.545682,4.462792,4.685453,-0.030543262,-0.042760566,0.08674286
1757149104696,9.583989,3.8187518,3.5003228,-0.030543262,-0.042760566,0.08674286
1757149104698,9.583989,3.8187518,3.5003228,1.6126842,-0.040317107,0.1001819
1757149104756,8.935161,4.201824,3.6296098,1.6126842,-0.040317107,0.1001819
1757149104757,8.935161,4.201824,3.6296098,0.4654793,0.02443461,-0.25411993
1757149104816,8.698134,4.534618,2.5713725,0.4654793,0.02443461,-0.25411993
1757149104818,8.698134,4.534618,2.5713725,-0.42638394,0.04520403,-0.22968534
1757149104873,8.722076,4.0653543,2.885013,-0.42638394,0.04520403,-0.22968534
1757149104874,8.722076,4.0653543,2.885013,-0.111177474,-0.10629055,-0.009773844
1757149104932,8.39886,4.280833,3.1747115,-0.111177474,-0.10629055,-0.009773844
1757149104933,8.39886,4.280833,3.1747115,-0.2406809,-0.24190263,-0.019547688
1757149104993,7.759608,5.0158525,4.1611223,-0.2406809,-0.24190263,-0.019547688
1757149104994,7.759608,5.0158525,4.1611223,0.4129449,-0.28588495,-0.09040806
1757149105056,7.4028716,4.5298295,2.15957,0.4129449,-0.28588495,-0.09040806
1757149105056,7.4028716,4.5298295,2.15957,1.0384709,-0.3359759,-0.14905111
1757149105117,6.4858923,3.3255463,0.9816227,1.0384709,-0.3359759,-0.14905111
1757149105119,6.4858923,3.3255463,0.9816227,-0.13316862,-0.004886922,-0.14782938
1757149105176,4.9057193,2.3415294,0.49799395,-0.13316862,-0.004886922,-0.14782938
1757149105177,4.9057193,2.3415294,0.49799395,0.059864793,-0.07819075,-0.2932153
1757149105237,3.4739866,2.0829554,0.260968,0.059864793,-0.07819075,-0.2932153
1757149105238,3.4739866,2.0829554,0.260968,-0.089186326,-0.17104226,-0.52290064
1757149105296,6.0501475,3.9480386,0.830788,-0.089186326,-0.17104226,-0.52290064
1757149105298,6.0501475,3.9480386,0.830788,0.087964594,-0.029321533,-0.1966986
1757149105357,9.11712,5.8634,1.5227122,0.087964594,-0.029321533,-0.1966986
1757149105358,9.11712,5.8634,1.5227122,-0.118507855,0.21502456,0.5204572
1757149105417,9.696517,5.961562,2.3080103,-0.118507855,0.21502456,0.5204572
1757149105418,9.696517,5.961562,2.3080103,-0.21013765,0.23701571,0.344528
1757149105478,8.626308,4.7907977,1.8243817,-0.21013765,0.23701571,0.344528
1757149105479,8.626308,4.7907977,1.8243817,-0.23457226,0.18325958,-0.065973446
1757149105537,8.451532,5.3462524,0.1364695,-0.23457226,0.18325958,-0.065973446
1757149105538,8.451532,5.3462524,0.1364695,-0.34574974,0.10262536,-0.1441642
1757149105599,9.41879,4.9823337,-1.3982137,-0.34574974,0.10262536,-0.1441642
1757149105600,9.41879,4.9823337,-1.3982137,-1.4404203,0.6365216,-0.24801129
1757149105658,10.465055,4.7500963,0.8810662,-1.4404203,0.6365216,-0.24801129
1757149105659,10.465055,4.7500963,0.8810662,-2.928488,1.817935,-0.6365216
1757149105719,8.559271,4.285621,4.405331,-2.928488,1.817935,-0.6365216
1757149105720,8.559271,4.285621,4.405331,-0.6414085,2.6267207,-0.8686504
1757149105778,5.9424086,3.9983168,6.2105594,-0.6414085,2.6267207,-0.8686504
1757149105779,5.9424086,3.9983168,6.2105594,-0.77946407,3.1838295,-1.0824533
1757149105836,3.0142999,2.2457612,6.7109475,-0.77946407,3.1838295,-1.0824533
1757149105838,3.0142999,2.2457612,6.7109475,0.06719518,3.4025195,-1.1325442
1757149105899,-0.8643068,1.3215994,7.620744,0.06719518,3.4025195,-1.1325442
1757149105901,-0.8643068,1.3215994,7.620744,1.627345,3.0812044,-1.3292428
1757149105958,-2.2720973,5.662287,9.038112,1.627345,3.0812044,-1.3292428
1757149105960,-2.2720973,5.662287,9.038112,2.1148155,1.8765781,-0.9627236
1757149106016,-2.5354595,6.799533,8.913613,2.1148155,1.8765781,-0.9627236
1757149106018,-2.5354595,6.799533,8.913613,0.52656585,0.7281514,-0.7122689
1757149106074,-2.0614076,7.33344,8.058883,0.52656585,0.7281514,-0.7122689
1757149106074,-2.0614076,7.33344,8.058883,-0.42271876,-0.04886922,-0.22479841
1757149106133,-1.9057846,7.9726915,7.381324,-0.42271876,-0.04886922,-0.22479841
1757149106134,-1.9057846,7.9726915,7.381324,-0.64996064,-0.25045475,0.02687807
1757149106193,-1.8746599,6.655881,7.345411,-0.64996064,-0.25045475,0.02687807
1757149106194,-1.8746599,6.655881,7.345411,-0.46181414,-0.28588495,0.03176499
1757149106257,-2.1212628,6.1411276,6.682217,-0.46181414,-0.28588495,0.03176499
1757149106259,-2.1212628,6.1411276,6.682217,-0.22968534,-0.07086037,0.040317107
1757149106319,-0.6919243,5.66947,7.2951326,-0.22968534,-0.07086037,0.040317107
1757149106321,-0.6919243,5.66947,7.2951326,-0.19792034,0.1001819,0.030543262
1757149106378,-0.79248077,6.1890116,8.001422,-0.19792034,0.1001819,0.030543262
1757149106380,-0.79248077,6.1890116,8.001422,-0.095294975,0.15515977,0.0
1757149106438,-0.35913026,6.3302693,8.391677,-0.095294975,0.15515977,0.0
1757149106439,-0.35913026,6.3302693,8.391677,-0.06963864,0.15882497,0.012217305
1757149106498,0.36152446,5.4420204,15.227123,-0.06963864,0.15882497,0.012217305
1757149106499,0.36152446,5.4420204,15.227123,1.0421361,-0.14538592,-0.08552113
1757149106554,-0.48123455,5.533,7.6734166,1.0421361,-0.14538592,-0.08552113
1757149106554,-0.48123455,5.533,7.6734166,-0.50946164,-0.004886922,0.07574729
