timestamp,ax,ay,az,gx,gy,gz
1757213672858,0.8475474,3.095703,9.033323,-0.087964594,-0.15882497,-0.018325957
1757213672858,0.8475474,3.095703,9.033323,-0.02565634,0.0720821,-0.32375857
1757213672890,0.7541735,2.9496565,9.639056,-0.02565634,0.0720821,-0.32375857
1757213672890,0.7541735,2.9496565,9.639056,0.3005457,0.40439278,0.16493362
1757213672951,0.60333884,3.608062,8.954314,0.3005457,0.40439278,0.16493362
1757213672952,0.60333884,3.608062,8.954314,0.008552114,0.29077184,0.08674286
1757213673014,-0.059855044,3.4237084,8.597578,0.008552114,0.29077184,0.08674286
1757213673014,-0.059855044,3.4237084,8.597578,-0.17592919,0.11728613,0.25167647
1757213673073,-1.151611,4.1180267,7.920019,-0.17592919,0.11728613,0.25167647
1757213673073,-1.151611,4.1180267,7.920019,-0.22602014,-0.042760566,-0.039095376
1757213673134,-1.7238252,3.4955344,8.463503,-0.22602014,-0.042760566,-0.039095376
1757213673135,-1.7238252,3.4955344,8.463503,-0.33108896,-0.039095376,-0.17348573
1757213673193,-1.5825673,4.7644615,9.454702,-0.33108896,-0.039095376,-0.17348573
1757213673194,-1.5825673,4.7644615,9.454702,-0.3494149,-0.2125811,-0.27000242
1757213673253,-0.91937345,5.592855,9.229648,-0.3494149,-0.2125811,-0.27000242
1757213673254,-0.91937345,5.592855,9.229648,-1.5442673,-0.72326446,-0.16982053
1757213673313,0.93134445,2.4061728,9.825804,-1.5442673,-0.72326446,-0.16982053
1757213673314,0.93134445,2.4061728,9.825804,-5.7091465,-1.6175711,-0.21991149
1757213673372,6.0716953,-11.475409,4.855441,-5.7091465,-1.6175711,-0.21991149
1757213673372,6.0716953,-11.475409,4.855441,-11.357206,-2.5008824,-1.8619173
1757213673434,7.6590514,-17.35078,-3.1411927,-11.357206,-2.5008824,-1.8619173
1757213673434,7.6590514,-17.35078,-3.1411927,-8.9222975,0.77213365,-4.660902
1757213673493,1.4796166,-10.230424,4.010288,-8.9222975,0.77213365,-4.660902
1757213673494,1.4796166,-10.230424,4.010288,-2.9455922,3.3194418,-4.483751
1757213673553,1.3431472,-6.8282633,5.020641,-2.9455922,3.3194418,-4.483751
1757213673554,1.3431472,-6.8282633,5.020641,0.16249016,2.398257,-3.040887
1757213673611,2.054225,-3.6631286,2.6767175,0.16249016,2.398257,-3.040887
1757213673613,2.054225,-3.6631286,2.6767175,1.5564847,1.5198327,-0.9773844
1757213673670,7.7093296,-3.004723,7.9846625,1.5564847,1.5198327,-0.9773844
1757213673670,7.7093296,-3.004723,7.9846625,0.39584067,1.9181169,0.5375614
1757213673732,3.9863458,-0.6871359,7.955932,0.39584067,1.9181169,0.5375614
1757213673733,3.9863458,-0.6871359,7.955932,-0.8735373,0.64751714,1.4159856
1757213673792,5.9041014,-6.0597243,6.217742,-0.8735373,0.64751714,1.4159856
1757213673793,5.9041014,-6.0597243,6.217742,1.0543534,0.18936823,0.27366763
1757213673832,4.0054994,-3.7708676,7.7189064,1.0543534,0.18936823,0.27366763
1757213673833,4.0054994,-3.7708676,7.7189064,1.287704,0.31031954,-0.059864793
1757213673894,3.1196449,-2.5019407,3.9097314,1.287704,0.31031954,-0.059864793
1757213673896,3.1196449,-2.5019407,3.9097314,0.79779,-0.0036651916,0.02687807
1757213673954,3.004723,-1.4460979,1.6879122,0.79779,-0.0036651916,0.02687807
1757213673956,3.004723,-1.4460979,1.6879122,0.94806284,0.40194935,0.0061086523
1757213674013,3.086126,-1.2234371,2.7988217,0.94806284,0.40194935,0.0061086523
1757213674015,3.086126,-1.2234371,2.7988217,0.25900686,0.408058,0.030543262
1757213674073,3.6942532,-2.4947581,4.0916905,0.25900686,0.408058,0.030543262
1757213674075,3.6942532,-2.4947581,4.0916905,0.30176744,0.30298916,0.089186326
1757213674132,4.5322237,-2.920926,4.745308,0.30176744,0.30298916,0.089186326
1757213674134,4.5322237,-2.920926,4.745308,-0.26145032,0.13927728,0.10629055
1757213674194,4.5872903,-4.7979803,6.457162,-0.26145032,0.13927728,0.10629055
1757213674196,4.5872903,-4.7979803,6.457162,0.10262536,0.10140363,0.21380283
1757213674253,5.461174,-3.6535518,7.493851,0.10262536,0.10140363,0.21380283
1757213674255,5.461174,-3.6535518,7.493851,-0.3567453,-0.062308256,0.16249016
1757213674314,6.540959,-6.0836663,7.548918,-0.3567453,-0.062308256,0.16249016
1757213674315,6.540959,-6.0836663,7.548918,0.53023106,-0.030543262,0.05009095
1757213674373,6.811504,-5.056554,7.941567,0.53023106,-0.030543262,0.05009095
1757213674375,6.811504,-5.056554,7.941567,-0.40317106,-0.13194689,0.087964594
1757213674432,6.727707,-5.8083334,9.526528,-0.40317106,-0.13194689,0.087964594
1757213674433,6.727707,-5.8083334,9.526528,0.48991394,0.040317107,0.036651913
1757213674493,8.406042,-7.314286,9.765948,0.48991394,0.040317107,0.036651913
1757213674495,8.406042,-7.314286,9.765948,0.1563815,0.036651913,0.057421334
1757213674553,10.433931,-5.4803276,14.003686,0.1563815,0.036651913,0.057421334
1757213674554,10.433931,-5.4803276,14.003686,0.5119051,0.096516706,0.013439035
1757213674612,10.366894,-6.5960255,13.9917145,0.5119051,0.096516706,0.013439035
1757213674614,10.366894,-6.5960255,13.9917145,-0.16982053,0.118507855,0.111177474
1757213674672,8.825027,-5.626374,13.199234,-0.16982053,0.118507855,0.111177474
1757213674674,8.825027,-5.626374,13.199234,-0.30543262,-0.02565634,0.081855945
1757213674729,8.0924015,-4.855441,10.089166,-0.30543262,-0.02565634,0.081855945
1757213674732,8.0924015,-4.855441,10.089166,0.11362094,0.3885103,-0.021991149
1757213674789,7.237672,-4.4939165,8.9758625,0.11362094,0.3885103,-0.021991149
1757213674790,7.237672,-4.4939165,8.9758625,-0.55833083,0.53023106,0.08552113
1757213674852,6.069301,-5.4420204,7.896077,-0.55833083,0.53023106,0.08552113
1757213674853,6.069301,-5.4420204,7.896077,0.3359759,0.79290307,-0.17104226
1757213674912,3.8594532,-5.81791,8.880095,0.3359759,0.79290307,-0.17104226
1757213674913,3.8594532,-5.81791,8.880095,-0.19181168,0.62796944,-0.112399206
1757213674972,3.9983168,-4.9655743,8.013393,-0.19181168,0.62796944,-0.112399206
1757213674974,3.9983168,-4.9655743,8.013393,0.6084218,0.3726278,-0.07819075
1757213675031,4.5298295,-5.497087,7.4028716,0.6084218,0.3726278,-0.07819075
1757213675033,4.5298295,-5.497087,7.4028716,0.06719518,0.15271631,0.0036651916
1757213675092,4.5298295,-4.232949,8.085219,0.06719518,0.15271631,0.0036651916
1757213675095,4.5298295,-4.232949,8.085219,0.15882497,0.27977628,0.05009095
1757213675152,3.679888,-3.596091,8.061277,0.15882497,0.27977628,0.05009095
1757213675154,3.679888,-3.596091,8.061277,-0.028099801,0.25778514,0.0842994
1757213675212,2.336741,-2.3080103,6.907272,-0.028099801,0.25778514,0.0842994
1757213675214,2.336741,-2.3080103,6.907272,0.23945917,0.06352998,0.047647487
1757213675272,2.4420857,-1.7405846,5.1690817,0.23945917,0.06352998,0.047647487
1757213675273,2.4420857,-1.7405846,5.1690817,0.7635816,-0.21502456,-0.064751714
1757213675331,1.2761095,-1.0869676,2.4372973,0.7635816,-0.21502456,-0.064751714
1757213675333,1.2761095,-1.0869676,2.4372973,1.6811012,-0.38606682,-0.2919936
1757213675392,0.6919243,0.7038953,2.585738,1.6811012,-0.38606682,-0.2919936
1757213675394,0.6919243,0.7038953,2.585738,0.44837508,-0.0036651916,-0.15027285
1757213675451,1.8076223,0.079008654,4.6806645,0.44837508,-0.0036651916,-0.15027285
1757213675452,1.8076223,0.079008654,4.6806645,0.42149702,0.37018433,0.096516706
1757213675511,3.4452562,-0.19871874,8.698134,0.42149702,0.37018433,0.096516706
1757213675512,3.4452562,-0.19871874,8.698134,-0.70738196,0.204029,0.34330627
1757213675571,4.367024,-2.2697031,11.137826,-0.70738196,0.204029,0.34330627
1757213675573,4.367024,-2.2697031,11.137826,-0.27122417,0.20525073,0.32620203
1757213675629,3.4739866,-2.1978772,10.081984,-0.27122417,0.20525073,0.32620203
1757213675631,3.4739866,-2.1978772,10.081984,-0.31887165,0.22968534,0.105068825
1757213675692,2.6743233,-0.61052144,8.389283,-0.31887165,0.22968534,0.105068825
1757213675693,2.6743233,-0.61052144,8.389283,-0.1001819,0.1001819,-0.06719518
1757213675751,2.6144683,-0.6751649,7.4124484,-0.1001819,0.1001819,-0.06719518
1757213675752,2.6144683,-0.6751649,7.4124484,-0.5742133,-0.14905111,-0.13072516
1757213675811,2.4301147,-1.292869,7.4507556,-0.5742133,-0.14905111,-0.13072516
1757213675812,2.4301147,-1.292869,7.4507556,-0.66339964,-0.33964106,-0.13561209
1757213675870,1.9800048,-1.6352397,7.1395097,-0.66339964,-0.33964106,-0.13561209
1757213675872,1.9800048,-1.6352397,7.1395097,-0.7611381,-0.57910025,-0.14782938
1757213675930,2.3750482,-1.9081788,5.1906295,-0.7611381,-0.57910025,-0.14782938
1757213675934,2.3750482,-1.9081788,5.1906295,-0.24312437,-0.47891834,-0.1160644
1757213675990,2.1547816,-1.3958195,4.1012673,-0.24312437,-0.47891834,-0.1160644
1757213675991,2.1547816,-1.3958195,4.1012673,-0.16982053,-0.35430184,-0.037873644
1757213676049,2.908955,-1.9488802,4.345476,-0.16982053,-0.35430184,-0.037873644
1757213676050,2.908955,-1.9488802,4.345476,-0.13561209,-0.16126843,0.035430185
1757213676109,3.7325604,-2.1787236,5.4659624,-0.13561209,-0.16126843,0.035430185
1757213676111,3.7325604,-2.1787236,5.4659624,-0.36896262,-0.18203785,0.1160644
1757213676169,5.2983685,-4.6112323,7.029376,-0.36896262,-0.18203785,0.1160644
1757213676171,5.2983685,-4.6112323,7.029376,-0.35308012,-0.111177474,0.16615535
1757213676212,5.2624555,-3.9264908,7.9966335,-0.35308012,-0.111177474,0.16615535
1757213676214,5.2624555,-3.9264908,7.9966335,-0.009773844,-0.118507855,0.087964594
1757213676272,5.463568,-5.722142,8.281544,-0.009773844,-0.118507855,0.087964594
1757213676273,5.463568,-5.722142,8.281544,-0.32375857,-0.064751714,0.03176499
1757213676330,5.109226,-4.654328,9.306262,-0.32375857,-0.064751714,0.03176499
1757213676332,5.109226,-4.654328,9.306262,-0.043982297,0.095294975,0.08552113
1757213676391,6.0046577,-6.196194,9.435549,-0.043982297,0.095294975,0.08552113
1757213676392,6.0046577,-6.196194,9.435549,-0.12095132,0.018325957,0.06841691
1757213676451,7.5465236,-5.935226,10.704475,-0.12095132,0.018325957,0.06841691
1757213676453,7.5465236,-5.935226,10.704475,0.16493362,0.31764993,-0.02076942
1757213676510,6.9360023,-7.321469,12.299014,0.16493362,0.31764993,-0.02076942
1757213676512,6.9360023,-7.321469,12.299014,-0.21746802,-0.029321533,0.03176499
1757213676570,6.5505357,-6.9024835,13.364434,-0.21746802,-0.029321533,0.03176499
1757213676572,6.5505357,-6.9024835,13.364434,0.3371976,0.039095376,-0.10751228
1757213676629,6.9024835,-7.2113357,11.427525,0.3371976,0.039095376,-0.10751228
1757213676630,6.9024835,-7.2113357,11.427525,0.04886922,0.27122417,0.02321288
1757213676690,6.019023,-5.097255,11.645397,0.04886922,0.27122417,0.02321288
1757213676691,6.019023,-5.097255,11.645397,-0.0842994,0.204029,0.029321533
1757213676750,5.3701944,-4.831499,9.193734,-0.0842994,0.204029,0.029321533
1757213676752,5.3701944,-4.831499,9.193734,0.31642818,0.07452556,-0.029321533
1757213676810,5.130774,-4.6255975,8.556877,0.31642818,0.07452556,-0.029321533
1757213676811,5.130774,-4.6255975,8.556877,-0.062308256,0.11484267,-0.021991149
1757213676871,5.1762643,-5.305551,9.210494,-0.062308256,0.11484267,-0.021991149
1757213676873,5.1762643,-5.305551,9.210494,0.017104227,0.12339478,-0.009773844
1757213676932,5.475539,-5.6527104,9.337387,0.017104227,0.12339478,-0.009773844
1757213676937,5.475539,-5.6527104,9.337387,0.42638394,0.2443461,-0.13927728
1757213676990,4.747702,-3.9073372,9.452309,0.42638394,0.2443461,-0.13927728
1757213676992,4.747702,-3.9073372,9.452309,0.23335053,0.13805555,-0.2125811
1757213677050,4.156334,-3.4332852,7.8170686,0.23335053,0.13805555,-0.2125811
1757213677052,4.156334,-3.4332852,7.8170686,0.5338962,0.06841691,-0.267559
1757213677110,3.9959226,-3.4811692,7.201759,0.5338962,0.06841691,-0.267559
1757213677112,3.9959226,-3.4811692,7.201759,-0.13683382,0.408058,-0.20158553
1757213677168,2.870648,-2.8538885,8.360553,-0.13683382,0.408058,-0.20158553
1757213677170,2.870648,-2.8538885,8.360553,0.05497787,0.50823987,-0.02443461
1757213677228,2.5258827,-2.861071,7.7213006,0.05497787,0.50823987,-0.02443461
1757213677229,2.5258827,-2.861071,7.7213006,0.31520647,0.21502456,-0.004886922
1757213677286,2.0805612,-1.9776106,6.145916,0.31520647,0.21502456,-0.004886922
1757213677288,2.0805612,-1.9776106,6.145916,0.3848451,0.15027285,0.002443461
1757213677352,1.3215994,-1.0773908,4.5178585,0.3848451,0.15027285,0.002443461
1757213677354,1.3215994,-1.0773908,4.5178585,0.4373795,0.21746802,0.02565634
1757213677408,0.8690952,-0.50996494,3.5434184,0.4373795,0.21746802,0.02565634
1757213677409,0.8690952,-0.50996494,3.5434184,0.5290093,0.59864795,0.2003638
1757213677469,1.5298948,-0.44771573,4.2401314,0.5290093,0.59864795,0.2003638
1757213677471,1.5298948,-0.44771573,4.2401314,-0.0061086523,0.50335294,0.27000242
1757213677529,3.4117374,-0.32321724,7.7093296,-0.0061086523,0.50335294,0.27000242
1757213677531,3.4117374,-0.32321724,7.7093296,-0.57910025,0.28955013,0.14905111
1757213677590,2.468422,-2.956839,12.799402,-0.57910025,0.28955013,0.14905111
1757213677591,2.468422,-2.956839,12.799402,-1.4269812,-0.012217305,0.06841691
1757213677649,2.825158,-4.675876,11.530476,-1.4269812,-0.012217305,0.06841691
1757213677650,2.825158,-4.675876,11.530476,0.39828414,0.05009095,0.0036651916
1757213677709,2.4109612,-1.6567876,8.568848,0.39828414,0.05009095,0.0036651916
1757213677710,2.4109612,-1.6567876,8.568848,0.6010914,-0.0012217305,-0.052534413
1757213677768,2.111686,-0.7541735,6.861782,0.6010914,-0.0012217305,-0.052534413
1757213677768,2.111686,-0.7541735,6.861782,0.12095132,-0.096516706,-0.09040806
1757213677828,1.5442601,-1.9273324,8.4347725,0.12095132,-0.096516706,-0.09040806
1757213677829,1.5442601,-1.9273324,8.4347725,-0.43982297,-0.17104226,0.013439035
1757213677889,2.0015526,-2.3008277,9.16261,-0.43982297,-0.17104226,0.013439035
1757213677891,2.0015526,-2.3008277,9.16261,-0.50335294,-0.3567453,-0.05375614
1757213677948,2.0231004,-2.3582888,8.298303,-0.50335294,-0.3567453,-0.05375614
1757213677950,2.0231004,-2.3582888,8.298303,-0.6169739,-0.5216789,-0.06352998
1757213678008,1.3910311,-2.3750482,6.9886746,-0.6169739,-0.5216789,-0.06352998
1757213678010,1.3910311,-2.3750482,6.9886746,-0.3042109,-0.5729916,-0.04153884
1757213678070,1.3239936,-1.4772224,4.6926355,-0.3042109,-0.5729916,-0.04153884
1757213678072,1.3239936,-1.4772224,4.6926355,0.103847094,-0.5693264,-0.010995574
1757213678128,2.80361,-1.0271125,3.53863,0.103847094,-0.5693264,-0.010995574
1757213678130,2.80361,-1.0271125,3.53863,-0.0012217305,-0.5558874,0.007330383
1757213678189,3.5003228,-2.0350714,4.3718123,-0.0012217305,-0.5558874,0.007330383
1757213678190,3.5003228,-2.0350714,4.3718123,-0.10262536,-0.20891592,0.08307768
1757213678246,3.976769,-3.071761,6.6391215,-0.10262536,-0.20891592,0.08307768
1757213678246,3.976769,-3.071761,6.6391215,-0.5571091,-0.047647487,0.095294975
1757213678304,4.297592,-3.4763808,8.293514,-0.5571091,-0.047647487,0.095294975
1757213678305,4.297592,-3.4763808,8.293514,-0.13194689,-0.14294247,0.02565634
1757213678367,4.5394063,-3.8402996,8.221688,-0.13194689,-0.14294247,0.02565634
1757213678368,4.5394063,-3.8402996,8.221688,-0.02076942,-0.15760323,-0.035430185
1757213678425,4.4603977,-5.449203,9.244013,-0.02076942,-0.15760323,-0.035430185
1757213678426,4.4603977,-5.449203,9.244013,-0.10751228,-0.18203785,0.081855945
1757213678489,5.3318872,-4.9344497,9.624691,-0.10751228,-0.18203785,0.081855945
1757213678490,5.3318872,-4.9344497,9.624691,0.21991149,-0.13439035,0.018325957
1757213678547,6.0501475,-6.114791,9.548077,0.21991149,-0.13439035,0.018325957
1757213678549,6.0501475,-6.114791,9.548077,-0.37018433,-0.061086524,0.09407325
1757213678608,5.9280434,-5.305551,10.99178,-0.37018433,-0.061086524,0.09407325
1757213678610,5.9280434,-5.305551,10.99178,-0.07086037,-0.043982297,0.007330383
1757213678668,7.61835,-6.457162,10.8864355,-0.07086037,-0.043982297,0.007330383
1757213678669,7.61835,-6.457162,10.8864355,0.3481932,0.1685988,-0.009773844
1757213678728,6.215348,-7.690176,12.174516,0.3481932,0.1685988,-0.009773844
1757213678729,6.215348,-7.690176,12.174516,-0.2968805,-0.05375614,0.030543262
1757213678788,6.445191,-5.6239796,11.259931,-0.2968805,-0.05375614,0.030543262
1757213678789,6.445191,-5.6239796,11.259931,0.42760566,0.24801129,-0.056199603
1757213678848,5.509058,-6.155493,11.815386,0.42760566,0.24801129,-0.056199603
1757213678850,5.509058,-6.155493,11.815386,-0.17104226,-0.08307768,-0.014660766
1757213678909,5.717354,-3.335123,9.890448,-0.17104226,-0.08307768,-0.014660766
1757213678910,5.717354,-3.335123,9.890448,0.35185838,0.24312437,-0.11728613
1757213678968,5.7149596,-5.6431336,10.13705,0.35185838,0.24312437,-0.11728613
1757213678969,5.7149596,-5.6431336,10.13705,-0.26633725,0.2883284,0.0842994
1757213679030,5.547365,-5.097255,9.603143,-0.26633725,0.2883284,0.0842994
1757213679031,5.547365,-5.097255,9.603143,-0.06352998,0.09162979,-0.14538592
1757213679088,5.097255,-4.936844,9.325416,-0.06352998,0.09162979,-0.14538592
1757213679089,5.097255,-4.936844,9.325416,-0.07086037,0.23701571,-0.05375614
1757213679147,4.5418005,-5.032612,9.921572,-0.07086037,0.23701571,-0.05375614
1757213679149,4.5418005,-5.032612,9.921572,-0.058643065,0.18692477,-0.035430185
1757213679207,3.833117,-3.5745432,8.372523,-0.058643065,0.18692477,-0.035430185
1757213679209,3.833117,-3.5745432,8.372523,0.18325958,0.010995574,-0.034208454
1757213679268,3.0310593,-3.3877954,8.152257,0.18325958,0.010995574,-0.034208454
1757213679270,3.0310593,-3.3877954,8.152257,0.28344148,0.0036651916,0.06352998
1757213679327,2.7485435,-2.6048915,7.6015906,0.28344148,0.0036651916,0.06352998
1757213679329,2.7485435,-2.6048915,7.6015906,0.51923543,0.07819075,0.056199603
1757213679387,1.982399,-1.8962077,6.136339,0.51923543,0.07819075,0.056199603
1757213679389,1.982399,-1.8962077,6.136339,0.6426302,0.17470746,0.02687807
1757213679445,1.6256629,-1.2042835,3.8953662,0.6426302,0.17470746,0.02687807
1757213679447,1.6256629,-1.2042835,3.8953662,1.1178834,0.12950343,0.002443461
1757213679507,1.2066777,-0.56982,2.743755,1.1178834,0.12950343,0.002443461
1757213679509,1.2066777,-0.56982,2.743755,0.8735373,0.25045475,-0.037873644
1757213679564,1.5251064,-0.38307226,3.0909145,0.8735373,0.25045475,-0.037873644
1757213679566,1.5251064,-0.38307226,3.0909145,0.5009095,0.40683624,-0.087964594
1757213679627,2.707842,1.3742718,8.013393,0.5009095,0.40683624,-0.087964594
1757213679628,2.707842,1.3742718,8.013393,-0.51068336,0.22724187,0.04642576
1757213679686,3.193865,-2.8323407,11.520899,-0.51068336,0.22724187,0.04642576
1757213679687,3.193865,-2.8323407,11.520899,-1.46852,-0.08674286,0.23335053
1757213679745,3.2106245,-5.044583,12.186486,-1.46852,-0.08674286,0.23335053
1757213679747,3.2106245,-5.044583,12.186486,-0.16982053,0.15882497,0.15760323
1757213679805,3.1148565,-1.1827357,8.781932,-0.16982053,0.15882497,0.15760323
1757213679807,3.1148565,-1.1827357,8.781932,0.68539083,-0.0036651916,-0.06841691
1757213679866,2.5929205,-0.24420857,6.8929067,0.68539083,-0.0036651916,-0.06841691
1757213679868,2.5929205,-0.24420857,6.8929067,-0.17470746,0.004886922,-0.02565634
1757213679924,2.5450363,-1.5801731,8.1881695,-0.17470746,0.004886922,-0.02565634
1757213679926,2.5450363,-1.5801731,8.1881695,-0.6939429,0.10873401,0.14538592
1757213679988,2.3295584,-2.7700913,9.68694,-0.6939429,0.10873401,0.14538592
1757213679989,2.3295584,-2.7700913,9.68694,-0.64996064,-0.18936823,0.07696902
1757213680048,2.6360161,-1.532289,8.432379,-0.64996064,-0.18936823,0.07696902
1757213680050,2.6360161,-1.532289,8.432379,-0.45937067,-0.40439278,-0.05009095
1757213680105,2.6719291,-2.0470424,7.4962454,-0.45937067,-0.40439278,-0.05009095
1757213680106,2.6719291,-2.0470424,7.4962454,-0.5021312,-0.2724459,-0.058643065
1757213680165,2.3247697,-1.6448165,7.1634517,-0.5021312,-0.2724459,-0.058643065
1757213680166,2.3247697,-1.6448165,7.1634517,-0.6206391,-0.5510005,-0.103847094
1757213680226,2.1930888,-1.9752164,5.932832,-0.6206391,-0.5510005,-0.103847094
1757213680227,2.1930888,-1.9752164,5.932832,-0.0720821,-0.7012733,-0.10629055
1757213680282,2.4588451,-2.3774424,4.6232033,-0.0720821,-0.7012733,-0.10629055
1757213680284,2.4588451,-2.3774424,4.6232033,0.052534413,-0.5839872,-0.07086037
1757213680344,3.9025488,-2.4732103,4.223372,0.052534413,-0.5839872,-0.07086037
1757213680345,3.9025488,-2.4732103,4.223372,0.03176499,-0.27122417,-0.073303826
1757213680406,4.4963107,-3.6152446,5.4563856,0.03176499,-0.27122417,-0.073303826
1757213680407,4.4963107,-3.6152446,5.4563856,-0.5693264,-0.30176744,0.08307768
1757213680465,4.5992613,-4.0174704,6.179435,-0.5693264,-0.30176744,0.08307768
1757213680466,4.5992613,-4.0174704,6.179435,-0.10873401,0.13683382,-0.019547688
1757213680524,4.7668557,-3.799598,7.9487495,-0.10873401,0.13683382,-0.019547688
1757213680525,4.7668557,-3.799598,7.9487495,-0.38728857,0.073303826,0.07086037
1757213680586,4.367024,-5.0661306,8.018182,-0.38728857,0.073303826,0.07086037
1757213680587,4.367024,-5.0661306,8.018182,0.07452556,0.012217305,-0.14049901
1757213680644,5.2480903,-4.537012,7.702147,0.07452556,0.012217305,-0.14049901
1757213680645,5.2480903,-4.537012,7.702147,-0.14660765,-0.021991149,-0.14660765
1757213680705,4.9895163,-4.9895163,9.064447,-0.14660765,-0.021991149,-0.14660765
1757213680706,4.9895163,-4.9895163,9.064447,-0.02687807,-0.058643065,-0.13805555
1757213680766,6.0884547,-5.93762,9.866506,-0.02687807,-0.058643065,-0.13805555
1757213680767,6.0884547,-5.93762,9.866506,0.29443705,0.15515977,-0.16126843
1757213680824,6.9360023,-5.106832,10.55843,0.29443705,0.15515977,-0.16126843
1757213680826,6.9360023,-5.106832,10.55843,-0.31520647,0.081855945,-0.23457226
1757213680884,7.3071036,-7.350199,11.085154,-0.31520647,0.081855945,-0.23457226
1757213680885,7.3071036,-7.350199,11.085154,-0.056199603,0.008552114,-0.0720821
1757213680944,7.654263,-6.399701,13.565547,-0.056199603,0.008552114,-0.0720821
1757213680945,7.654263,-6.399701,13.565547,-0.04520403,0.14538592,-0.056199603
1757213681004,7.1969705,-6.825869,13.196839,-0.04520403,0.14538592,-0.056199603
1757213681005,7.1969705,-6.825869,13.196839,-0.07819075,0.22602014,-0.16126843
1757213681064,6.5026517,-5.4420204,11.274296,-0.07819075,0.22602014,-0.16126843
1757213681065,6.5026517,-5.4420204,11.274296,0.453262,0.30176744,-0.07086037
1757213681125,5.2840033,-6.3470287,9.545682,0.453262,0.30176744,-0.07086037
1757213681127,5.2840033,-6.3470287,9.545682,0.2773328,0.06841691,-0.27122417
1757213681183,5.5976434,-4.6830587,7.8146744,0.2773328,0.06841691,-0.27122417
1757213681185,5.5976434,-4.6830587,7.8146744,0.02076942,0.1282817,-0.28955013
1757213681244,4.3287168,-5.949591,9.064447,0.02076942,0.1282817,-0.28955013
1757213681245,4.3287168,-5.949591,9.064447,0.014660766,-0.013439035,0.042760566
1757213681304,4.367024,-4.4077253,8.446744,0.014660766,-0.013439035,0.042760566
1757213681306,4.367024,-4.4077253,8.446744,0.35430184,-0.37873647,0.18936823
1757213681364,6.3805475,-3.9025488,8.180987,0.35430184,-0.37873647,0.18936823
1757213681366,6.3805475,-3.9025488,8.180987,0.008552114,0.14905111,0.35185838
1757213681424,4.711789,-3.845088,8.937555,0.008552114,0.14905111,0.35185838
1757213681425,4.711789,-3.845088,8.937555,0.032986723,0.1600467,0.29443705
1757213681484,4.405331,-3.620033,7.565677,0.032986723,0.1600467,0.29443705
1757213681485,4.405331,-3.620033,7.565677,0.27000242,0.14049901,0.3408628
1757213681544,4.3526587,-3.4979286,7.091625,0.27000242,0.14049901,0.3408628
1757213681545,4.3526587,-3.4979286,7.091625,-0.13683382,0.10751228,0.17715092
1757213681603,2.834735,-2.858677,6.5505357,-0.13683382,0.10751228,0.17715092
1757213681604,2.834735,-2.858677,6.5505357,0.47891834,0.36896262,0.18081611
1757213681664,1.2449849,-1.5753847,3.8474822,0.47891834,0.36896262,0.18081611
1757213681665,1.2449849,-1.5753847,3.8474822,0.54733527,0.64996064,0.21746802
1757213681723,0.92416185,-1.2449849,0.92176765,0.54733527,0.64996064,0.21746802
1757213681724,0.92416185,-1.2449849,0.92176765,0.593761,0.87964594,0.24190263
1757213681783,1.541866,0.47884035,2.3582888,0.593761,0.87964594,0.24190263
1757213681785,1.541866,0.47884035,2.3582888,0.5693264,0.7281514,0.13316862
1757213681824,1.2521675,1.1468226,5.2504845,0.5693264,0.7281514,0.13316862
1757213681825,1.2521675,1.1468226,5.2504845,-0.057421334,0.17592919,0.14294247
1757213681884,3.8546648,-2.896984,11.6430025,-0.057421334,0.17592919,0.14294247
1757213681886,3.8546648,-2.896984,11.6430025,-2.2809708,-0.27488935,-0.12461651
1757213681944,2.2122424,-5.626374,12.401965,-2.2809708,-0.27488935,-0.12461651
1757213681945,2.2122424,-5.626374,12.401965,0.05009095,-0.15393804,-0.1563815
1757213682004,2.858677,-1.733402,8.789114,0.05009095,-0.15393804,-0.1563815
1757213682005,2.858677,-1.733402,8.789114,0.54367006,-0.1966986,-0.2919936
1757213682063,2.4468741,-1.091756,7.240066,0.54367006,-0.1966986,-0.2919936
1757213682064,2.4468741,-1.091756,7.240066,-0.017104227,-0.1881465,-0.17715092
1757213682123,2.693477,-2.8682537,7.881712,-0.017104227,-0.1881465,-0.17715092
1757213682124,2.693477,-2.8682537,7.881712,-0.453262,-0.105068825,-0.007330383
1757213682164,2.8179753,-3.2632968,8.722076,-0.453262,-0.105068825,-0.007330383
1757213682165,2.8179753,-3.2632968,8.722076,-0.46670106,-0.16126843,-0.10873401
1757213682224,2.5570073,-2.006341,8.403648,-0.46670106,-0.16126843,-0.10873401
1757213682225,2.5570073,-2.006341,8.403648,-0.5729916,-0.5876524,-0.2932153
1757213682284,2.5953147,-2.135628,6.7731967,-0.5729916,-0.5876524,-0.2932153
1757213682285,2.5953147,-2.135628,6.7731967,-0.5729916,-0.68661255,-0.3567453
1757213682344,2.516306,-2.5737667,4.8578353,-0.5729916,-0.68661255,-0.3567453
1757213682346,2.516306,-2.5737667,4.8578353,0.02076942,-0.8026769,-0.4202753
1757213682404,2.767697,-2.0925324,2.846706,0.02076942,-0.8026769,-0.4202753
1757213682406,2.767697,-2.0925324,2.846706,1.0262536,-0.7086037,-0.5852089
1757213682463,3.3638535,-2.1164744,2.554613,1.0262536,-0.7086037,-0.5852089
1757213682465,3.3638535,-2.1164744,2.554613,-0.5119051,-0.74036866,-0.376293
1757213682523,3.4835634,-2.4133554,3.799598,-0.5119051,-0.74036866,-0.376293
1757213682525,3.4835634,-2.4133554,3.799598,-0.9224065,-0.67073005,-0.0842994
1757213682584,4.735731,-3.904943,5.5497594,-0.9224065,-0.67073005,-0.0842994
1757213682585,4.735731,-3.904943,5.5497594,-1.047023,-0.49113566,0.10140363
1757213682644,5.451597,-4.924873,6.9479733,-1.047023,-0.49113566,0.10140363
1757213682645,5.451597,-4.924873,6.9479733,-0.6609562,-0.4251622,0.035430185
1757213682704,6.5218053,-5.2145715,6.7109475,-0.6609562,-0.4251622,0.035430185
1757213682705,6.5218053,-5.2145715,6.7109475,-0.6096435,-0.6010914,-0.087964594
1757213682763,8.0445175,-5.403713,5.971139,-0.6096435,-0.6010914,-0.087964594
1757213682765,8.0445175,-5.403713,5.971139,-0.25534168,-0.5021312,-0.089186326
1757213682823,8.772355,-7.3525934,7.273585,-0.25534168,-0.5021312,-0.089186326
1757213682825,8.772355,-7.3525934,7.273585,0.43982297,0.056199603,-0.13194689
1757213682883,8.461109,-6.9024835,8.468291,0.43982297,0.056199603,-0.13194689
1757213682885,8.461109,-6.9024835,8.468291,-0.98715824,-0.16737708,-0.0012217305
1757213682943,11.113884,-9.478644,9.16261,-0.98715824,-0.16737708,-0.0012217305
1757213682945,11.113884,-9.478644,9.16261,0.33108896,-0.07819075,-0.18325958
1757213683001,12.088325,-8.444349,10.0341,0.33108896,-0.07819075,-0.18325958
1757213683004,12.088325,-8.444349,10.0341,-0.1282817,-0.017104227,0.004886922
1757213683064,11.384429,-8.451532,11.676521,-0.1282817,-0.017104227,0.004886922
1757213683065,11.384429,-8.451532,11.676521,-0.1881465,0.40317106,0.0036651916
1757213683121,9.385271,-6.5098343,8.789114,-0.1881465,0.40317106,0.0036651916
1757213683123,9.385271,-6.5098343,8.789114,0.20891592,0.45448375,-0.0061086523
1757213683181,8.070854,-5.554548,6.505046,0.20891592,0.45448375,-0.0061086523
1757213683183,8.070854,-5.554548,6.505046,0.3042109,0.33841935,-0.1001819
1757213683241,7.666234,-6.2704144,5.595249,0.3042109,0.33841935,-0.1001819
1757213683242,7.666234,-6.2704144,5.595249,0.11728613,0.3555236,0.032986723
1757213683302,6.825869,-6.591237,5.9783216,0.11728613,0.3555236,0.032986723
1757213683304,6.825869,-6.591237,5.9783216,-0.073303826,0.20891592,-0.02321288
1757213683362,5.7628436,-5.872977,6.7013707,-0.073303826,0.20891592,-0.02321288
1757213683365,5.7628436,-5.872977,6.7013707,0.56688297,0.4129449,0.20891592
1757213683422,6.754043,-5.439626,5.7389016,0.56688297,0.4129449,0.20891592
1757213683424,6.754043,-5.439626,5.7389016,0.06352998,0.15271631,0.21624629
1757213683482,6.5122285,-4.5753193,5.255273,0.06352998,0.15271631,0.21624629
1757213683483,6.5122285,-4.5753193,5.255273,-0.10995574,0.052534413,0.10140363
1757213683541,6.555324,-5.2385135,6.179435,-0.10995574,0.052534413,0.10140363
1757213683543,6.555324,-5.2385135,6.179435,-0.36285394,0.065973446,0.1160644
1757213683602,5.3701944,-5.7029886,6.811504,-0.36285394,0.065973446,0.1160644
1757213683603,5.3701944,-5.7029886,6.811504,-0.19181168,-0.172264,0.103847094
1757213683662,4.8147397,-3.9935284,4.5202527,-0.19181168,-0.172264,0.103847094
1757213683663,4.8147397,-3.9935284,4.5202527,0.44837508,-0.18692477,0.07941248
1757213683722,2.291251,-1.7812861,1.2497733,0.44837508,-0.18692477,0.07941248
1757213683723,2.291251,-1.7812861,1.2497733,0.6414085,-0.087964594,0.009773844
1757213683781,0.9600749,0.090979666,1.5107412,0.6414085,-0.087964594,0.009773844
1757213683783,0.9600749,0.090979666,1.5107412,0.4129449,0.35185838,0.06841691
1757213683842,1.6208745,-0.6584055,3.514688,0.4129449,0.35185838,0.06841691
1757213683843,1.6208745,-0.6584055,3.514688,0.51923543,0.5119051,0.11728613
1757213683902,7.117962,-2.3343468,7.776367,0.51923543,0.5119051,0.11728613
1757213683903,7.117962,-2.3343468,7.776367,-0.2846632,0.040317107,0.17837265
1757213683959,6.789956,-7.055712,9.054871,-0.2846632,0.040317107,0.17837265
1757213683960,6.789956,-7.055712,9.054871,-1.065349,-0.5876524,-0.08307768
1757213684021,5.092467,-4.2281604,7.383718,-1.065349,-0.5876524,-0.08307768
1757213684022,5.092467,-4.2281604,7.383718,0.4007276,0.11362094,-0.13561209
1757213684080,5.329493,-3.4404678,5.303157,0.4007276,0.11362094,-0.13561209
1757213684082,5.329493,-3.4404678,5.303157,0.3652974,0.10995574,-0.06719518
1757213684140,4.1371803,-4.268862,6.337452,0.3652974,0.10995574,-0.06719518
1757213684142,4.1371803,-4.268862,6.337452,-0.24190263,-0.16371189,0.05375614
1757213684200,5.535394,-0.25857377,7.041347,-0.24190263,-0.16371189,0.05375614
1757213684201,5.535394,-0.25857377,7.041347,-0.28099802,-0.44593164,0.35185838
1757213684260,4.2999864,-5.8083334,6.5840545,-0.28099802,-0.44593164,0.35185838
1757213684261,4.2999864,-5.8083334,6.5840545,-1.0763446,-0.3567453,0.3042109
1757213684320,4.793192,-2.789245,6.265626,-1.0763446,-0.3567453,0.3042109
1757213684321,4.793192,-2.789245,6.265626,-0.5216789,-0.83199847,0.14172074
1757213684380,4.570531,-3.5434184,5.0661306,-0.5216789,-0.83199847,0.14172074
1757213684382,4.570531,-3.5434184,5.0661306,-1.0348058,-0.8344419,0.14905111
1757213684439,3.0454245,-2.4157495,2.2960393,-1.0348058,-0.8344419,0.14905111
1757213684441,3.0454245,-2.4157495,2.2960393,-0.16493362,-0.4288274,-0.28344148
1757213684500,4.7860093,-2.918532,0.29448682,-0.16493362,-0.4288274,-0.28344148
1757213684501,4.7860093,-2.918532,0.29448682,-0.4972443,-0.015882496,-0.43493605
1757213684559,4.450821,-2.791639,3.181894,-0.4972443,-0.015882496,-0.43493605
1757213684560,4.450821,-2.791639,3.181894,-0.5216789,0.09407325,-0.267559
1757213684620,4.8626237,-5.8586116,3.6942532,-0.5216789,0.09407325,-0.267559
1757213684621,4.8626237,-5.8586116,3.6942532,0.27855456,0.0720821,-0.26389378
1757213684678,6.069301,-4.781221,5.0493712,0.27855456,0.0720821,-0.26389378
1757213684680,6.069301,-4.781221,5.0493712,-0.119729586,-0.12583824,-0.16493362
1757213684739,6.2105594,-5.9639564,5.602432,-0.119729586,-0.12583824,-0.16493362
1757213684741,6.2105594,-5.9639564,5.602432,0.77824235,-0.2003638,-0.13927728
1757213684799,8.135497,-5.8346696,3.4955344,0.77824235,-0.2003638,-0.13927728
1757213684801,8.135497,-5.8346696,3.4955344,0.05009095,-0.10629055,-0.10262536
1757213684858,7.869741,-5.973533,4.7620673,0.05009095,-0.10629055,-0.10262536
1757213684860,7.869741,-5.973533,4.7620673,0.44959682,0.24923302,-0.095294975
1757213684919,8.525752,-7.6470804,4.9176903,0.44959682,0.24923302,-0.095294975
1757213684921,8.525752,-7.6470804,4.9176903,-0.034208454,0.15393804,-0.0061086523
1757213684978,9.287108,-5.9807158,6.7324953,-0.034208454,0.15393804,-0.0061086523
1757213684980,9.287108,-5.9807158,6.7324953,-0.30176744,0.043982297,0.07452556
1757213685039,10.493786,-9.473856,8.200141,-0.30176744,0.043982297,0.07452556
1757213685040,10.493786,-9.473856,8.200141,1.0519099,0.3567453,0.23579398
1757213685098,11.942278,-11.413159,8.202535,1.0519099,0.3567453,0.23579398
1757213685101,11.942278,-11.413159,8.202535,0.0,-0.105068825,0.119729586
1757213685159,12.071565,-8.561666,11.568783,0.0,-0.105068825,0.119729586
1757213685160,12.071565,-8.561666,11.568783,-1.3402383,-0.17470746,0.035430185
1757213685219,9.244013,-3.5362358,9.698911,-1.3402383,-0.17470746,0.035430185
1757213685221,9.244013,-3.5362358,9.698911,1.7947221,0.2406809,-0.3213151
1757213685277,10.5919485,-7.371747,3.6511576,1.7947221,0.2406809,-0.3213151
1757213685279,10.5919485,-7.371747,3.6511576,0.4373795,0.27488935,-0.30909783
1757213685338,8.286332,-3.359065,6.1243677,0.4373795,0.27488935,-0.30909783
1757213685340,8.286332,-3.359065,6.1243677,0.29810223,0.2406809,-0.09896017
1757213685399,7.0341644,-7.228095,5.973533,0.29810223,0.2406809,-0.09896017
1757213685404,7.0341644,-7.228095,5.973533,0.39828414,0.37507126,-0.16249016
1757213685459,6.907272,-5.9280434,5.7029886,0.39828414,0.37507126,-0.16249016
1757213685461,6.907272,-5.9280434,5.7029886,-0.49846604,0.0720821,0.16371189
1757213685518,7.479486,-4.501099,8.192958,-0.49846604,0.0720821,0.16371189
1757213685520,7.479486,-4.501099,8.192958,0.09162979,0.24801129,0.1685988
1757213685577,8.118738,-4.6662993,3.6727054,0.09162979,0.24801129,0.1685988
1757213685579,8.118738,-4.6662993,3.6727054,0.7696902,0.27855456,-0.12705997
1757213685640,6.1650696,-4.2305546,6.423643,0.7696902,0.27855456,-0.12705997
1757213685642,6.1650696,-4.2305546,6.423643,-0.48502702,0.4654793,0.040317107
1757213685698,3.4572272,-5.0374002,5.197812,-0.48502702,0.4654793,0.040317107
1757213685699,3.4572272,-5.0374002,5.197812,0.09285152,0.34697145,-0.14538592
1757213685739,2.0159178,-1.8602947,5.7029886,0.09285152,0.34697145,-0.14538592
1757213685741,2.0159178,-1.8602947,5.7029886,0.04153884,0.20647246,-0.037873644
1757213685799,0.91458505,-1.1324574,2.8275523,0.04153884,0.20647246,-0.037873644
1757213685800,0.91458505,-1.1324574,2.8275523,-0.014660766,-0.0036651916,-0.058643065
1757213685859,1.0366893,0.6344634,0.08619126,-0.014660766,-0.0036651916,-0.058643065
1757213685861,1.0366893,0.6344634,0.08619126,-0.017104227,0.12583824,-0.27122417
1757213685919,3.2800562,-1.2186487,1.5298948,-0.017104227,0.12583824,-0.27122417
1757213685921,3.2800562,-1.2186487,1.5298948,0.07086037,0.43493605,-0.29565877
1757213685978,6.409278,-0.038307227,8.226477,0.07086037,0.43493605,-0.29565877
1757213685979,6.409278,-0.038307227,8.226477,-0.47769663,-0.1600467,0.45448375
1757213686039,7.821857,-9.136273,9.56723,-0.47769663,-0.1600467,0.45448375
1757213686041,7.821857,-9.136273,9.56723,-1.287704,0.14660765,0.41783184
1757213686099,3.2728736,-6.9719152,9.074024,-1.287704,0.14660765,0.41783184
1757213686101,3.2728736,-6.9719152,9.074024,0.376293,0.2846632,-0.043982297
1757213686159,4.9823337,-3.8019924,4.8003745,0.376293,0.2846632,-0.043982297
1757213686161,4.9823337,-3.8019924,4.8003745,0.8918633,-0.02565634,-0.09040806
1757213686220,6.2752028,-2.0111294,5.8634,0.8918633,-0.02565634,-0.09040806
1757213686221,6.2752028,-2.0111294,5.8634,-0.16737708,-0.052534413,0.004886922
1757213686279,5.1355624,-4.309563,7.4627266,-0.16737708,-0.052534413,0.004886922
1757213686280,5.1355624,-4.309563,7.4627266,-0.7806858,-0.089186326,0.17715092
1757213686338,4.805163,-4.333505,7.33344,-0.7806858,-0.089186326,0.17715092
1757213686340,4.805163,-4.333505,7.33344,-0.31887165,-0.40194935,-0.056199603
1757213686399,4.865018,-3.1771057,4.630386,-0.31887165,-0.40194935,-0.056199603
1757213686400,4.865018,-3.1771057,4.630386,-0.33841935,-0.6646214,-0.19425514
1757213686459,4.924873,-3.4404678,5.2169657,-0.33841935,-0.6646214,-0.19425514
1757213686461,4.924873,-3.4404678,5.2169657,-0.6939429,-0.7648033,-0.07574729
1757213686518,3.620033,-3.916914,4.086902,-0.6939429,-0.7648033,-0.07574729
1757213686520,3.620033,-3.916914,4.086902,-0.65484756,-0.89675015,-0.032986723
1757213686578,3.8426938,-3.0621839,2.657564,-0.65484756,-0.89675015,-0.032986723
1757213686579,3.8426938,-3.0621839,2.657564,0.021991149,-0.5742133,-0.118507855
1757213686638,4.9895163,-2.5953147,1.2904748,0.021991149,-0.5742133,-0.118507855
1757213686639,4.9895163,-2.5953147,1.2904748,-0.20158553,-0.4886922,-0.1282817
1757213686698,4.5202527,-2.2385786,2.3343468,-0.20158553,-0.4886922,-0.1282817
1757213686700,4.5202527,-2.2385786,2.3343468,0.11728613,-0.10995574,-0.15027285
1757213686758,5.9280434,-4.060566,2.9975405,0.11728613,-0.10995574,-0.15027285
1757213686760,5.9280434,-4.060566,2.9975405,-0.17715092,-0.21502456,0.13439035
1757213686817,6.26802,-4.7046065,4.675876,-0.17715092,-0.21502456,0.13439035
1757213686818,6.26802,-4.7046065,4.675876,-0.119729586,0.061086524,-0.062308256
1757213686876,7.93199,-5.887342,5.2385135,-0.119729586,0.061086524,-0.062308256
1757213686878,7.93199,-5.887342,5.2385135,0.3481932,0.035430185,-0.14538592
1757213686938,8.231265,-6.885724,4.453215,0.3481932,0.035430185,-0.14538592
1757213686940,8.231265,-6.885724,4.453215,0.6609562,0.034208454,-0.14905111
1757213686996,8.525752,-5.9064956,5.291186,0.6609562,0.034208454,-0.14905111
1757213686998,8.525752,-5.9064956,5.291186,-0.14294247,0.09896017,0.0012217305
1757213687058,9.574412,-6.0956373,7.0221934,-0.14294247,0.09896017,0.0012217305
1757213687059,9.574412,-6.0956373,7.0221934,0.36163223,0.095294975,-0.008552114
1757213687119,10.041282,-7.8888946,6.579266,0.36163223,0.095294975,-0.008552114
1757213687120,10.041282,-7.8888946,6.579266,0.74281216,0.015882496,0.06352998
1757213687178,10.70687,-6.1411276,9.330204,0.74281216,0.015882496,0.06352998
1757213687180,10.70687,-6.1411276,9.330204,-0.22235495,0.10629055,0.30298916
1757213687236,12.576741,-6.943185,9.603143,-0.22235495,0.10629055,0.30298916
1757213687238,12.576741,-6.943185,9.603143,0.45081854,0.14905111,0.10629055
1757213687278,13.132196,-7.489063,9.579201,0.45081854,0.14905111,0.10629055
1757213687280,13.132196,-7.489063,9.579201,-0.22113322,-0.007330383,0.028099801
1757213687338,10.259154,-6.4739213,8.463503,-0.22113322,-0.007330383,0.028099801
1757213687339,10.259154,-6.4739213,8.463503,0.11484267,-0.08307768,-0.11362094
1757213687397,9.387665,-5.365406,6.6893997,0.11484267,-0.08307768,-0.11362094
1757213687399,9.387665,-5.365406,6.6893997,0.004886922,0.080634214,-0.18570304
1757213687458,8.157045,-6.931214,5.7963624,0.004886922,0.080634214,-0.18570304
1757213687460,8.157045,-6.931214,5.7963624,0.0012217305,-0.13072516,-0.096516706
1757213687518,7.4962454,-4.709395,5.2504845,0.0012217305,-0.13072516,-0.096516706
1757213687520,7.4962454,-4.709395,5.2504845,0.13316862,-0.12461651,-0.105068825
1757213687578,8.039729,-5.097255,5.8346696,0.13316862,-0.12461651,-0.105068825
1757213687580,8.039729,-5.097255,5.8346696,0.09773844,-0.07574729,-0.017104227
1757213687637,8.559271,-4.582502,5.0038815,0.09773844,-0.07574729,-0.017104227
1757213687639,8.559271,-4.582502,5.0038815,0.17959438,0.0842994,-0.07574729
1757213687697,8.37013,-4.8482585,5.092467,0.17959438,0.0842994,-0.07574729
1757213687699,8.37013,-4.8482585,5.092467,-0.02443461,0.25534168,0.002443461
1757213687756,7.6614456,-4.5202527,4.996699,-0.02443461,0.25534168,0.002443461
1757213687758,7.6614456,-4.5202527,4.996699,-0.10873401,0.204029,-0.09285152
1757213687817,6.241684,-4.1539397,5.463568,-0.10873401,0.204029,-0.09285152
1757213687819,6.241684,-4.1539397,5.463568,-0.21746802,0.31031954,0.073303826
1757213687879,4.19943,-2.7222073,4.9536033,-0.21746802,0.31031954,0.073303826
1757213687881,4.19943,-2.7222073,4.9536033,0.0,0.16249016,0.105068825
1757213687939,2.882619,-2.2840683,2.597709,0.0,0.16249016,0.105068825
1757213687941,2.882619,-2.2840683,2.597709,0.26633725,0.04886922,0.0036651916
1757213687996,1.6160861,-0.7541735,0.60573304,0.26633725,0.04886922,0.0036651916
1757213687998,1.6160861,-0.7541735,0.60573304,0.6658431,0.30176744,-0.20158553
1757213688056,1.7884687,0.1316811,1.1563994,0.6658431,0.30176744,-0.20158553
1757213688058,1.7884687,0.1316811,1.1563994,0.8405506,0.7305948,-0.087964594
1757213688117,5.8346696,-0.1316811,6.3589997,0.8405506,0.7305948,-0.087964594
1757213688119,5.8346696,-0.1316811,6.3589997,0.32498032,0.48258355,0.3640757
1757213688177,9.811439,-6.114791,8.348581,0.32498032,0.48258355,0.3640757
1757213688178,9.811439,-6.114791,8.348581,-1.5125023,-0.6169739,0.6047566
1757213688234,5.506664,-4.711789,9.255983,-1.5125023,-0.6169739,0.6047566
1757213688235,5.506664,-4.711789,9.255983,0.61208695,0.44226643,-0.095294975
1757213688292,5.805939,-2.9879637,5.473145,0.61208695,0.44226643,-0.095294975
1757213688292,5.805939,-2.9879637,5.473145,0.44715336,0.21013765,0.2321288
1757213688355,6.0884547,-2.6647465,4.6375685,0.44715336,0.21013765,0.2321288
1757213688355,6.0884547,-2.6647465,4.6375685,-0.13072516,-0.34697145,0.037873644
1757213688417,6.622362,-2.7964275,6.2584434,-0.13072516,-0.34697145,0.037873644
1757213688420,6.622362,-2.7964275,6.2584434,-0.53878313,-0.119729586,0.081855945
1757213688477,6.2512608,-5.0374002,7.314286,-0.53878313,-0.119729586,0.081855945
1757213688478,6.2512608,-5.0374002,7.314286,-0.43982297,-0.19181168,0.032986723
1757213688538,5.6910176,-3.1914709,6.227319,-0.43982297,-0.19181168,0.032986723
1757213688539,5.6910176,-3.1914709,6.227319,-0.20769419,-0.34574974,-0.010995574
1757213688596,4.72376,-3.335123,5.839458,-0.20769419,-0.34574974,-0.010995574
1757213688598,4.72376,-3.335123,5.839458,-0.45814893,-0.32620203,0.14294247
1757213688656,4.187459,-2.0039468,4.4220905,-0.45814893,-0.32620203,0.14294247
1757213688658,4.187459,-2.0039468,4.4220905,-0.2321288,-0.6035349,0.095294975
1757213688716,3.8977604,-2.5953147,3.7780502,-0.2321288,-0.6035349,0.095294975
1757213688717,3.8977604,-2.5953147,3.7780502,-0.45204028,-0.63041294,-0.015882496
1757213688776,3.8187518,-3.4476504,1.9632454,-0.45204028,-0.63041294,-0.015882496
1757213688777,3.8187518,-3.4476504,1.9632454,-0.36285394,-0.376293,0.018325957
1757213688835,4.501099,-3.7660792,2.360683,-0.36285394,-0.376293,0.018325957
1757213688837,4.501099,-3.7660792,2.360683,-0.7611381,-0.3115413,0.12705997
1757213688897,5.911284,-4.477157,3.8833952,-0.7611381,-0.3115413,0.12705997
1757213688898,5.911284,-4.477157,3.8833952,-0.31520647,-0.080634214,0.16493362
1757213688952,7.1945763,-4.673482,4.3622355,-0.31520647,-0.080634214,0.16493362
1757213688952,7.1945763,-4.673482,4.3622355,-0.24801129,0.036651913,-0.036651913
1757213689013,6.2728086,-5.422867,4.331111,-0.24801129,0.036651913,-0.036651913
1757213689014,6.2728086,-5.422867,4.331111,0.0,0.014660766,-0.10629055
1757213689072,5.719748,-5.0996494,4.7788267,0.0,0.014660766,-0.10629055
1757213689074,5.719748,-5.0996494,4.7788267,0.28588495,-0.13072516,-0.096516706
1757213689135,8.4826565,-5.803545,3.9935284,0.28588495,-0.13072516,-0.096516706
1757213689137,8.4826565,-5.803545,3.9935284,0.4007276,-0.07819075,0.010995574
1757213689196,9.045294,-7.589619,5.0876784,0.4007276,-0.07819075,0.010995574
1757213689197,9.045294,-7.589619,5.0876784,-0.25534168,-0.029321533,0.1685988
1757213689256,9.064447,-6.3350577,6.5122285,-0.25534168,-0.029321533,0.1685988
1757213689257,9.064447,-6.3350577,6.5122285,-0.004886922,0.039095376,0.10873401
1757213689315,10.903194,-7.309498,5.1140146,-0.004886922,0.039095376,0.10873401
1757213689317,10.903194,-7.309498,5.1140146,0.40439278,0.089186326,0.032986723
1757213689374,11.247959,-8.504205,6.6079965,0.40439278,0.089186326,0.032986723
1757213689376,11.247959,-8.504205,6.6079965,-0.1282817,-0.015882496,-0.12705997
1757213689434,11.927913,-7.9607205,8.391677,-0.1282817,-0.015882496,-0.12705997
1757213689436,11.927913,-7.9607205,8.391677,0.12461651,-0.065973446,-0.04642576
1757213689494,10.989386,-10.19451,7.752425,0.12461651,-0.065973446,-0.04642576
1757213689496,10.989386,-10.19451,7.752425,0.66828656,-0.058643065,-0.28588495
1757213689555,11.001357,-6.4643445,5.841852,0.66828656,-0.058643065,-0.28588495
1757213689557,11.001357,-6.4643445,5.841852,0.1563815,-0.13683382,-0.13439035
1757213689610,9.452309,-4.987122,4.819528,0.1563815,-0.13683382,-0.13439035
1757213689610,9.452309,-4.987122,4.819528,0.1881465,-0.012217305,-0.18936823
1757213689673,8.3150625,-7.501034,4.975151,0.1881465,-0.012217305,-0.18936823
1757213689675,8.3150625,-7.501034,4.975151,0.06719518,-0.05375614,-0.12217305
1757213689735,8.224083,-5.291186,4.4005427,0.06719518,-0.05375614,-0.12217305
1757213689737,8.224083,-5.291186,4.4005427,-0.12217305,0.095294975,-0.019547688
1757213689794,9.002198,-4.2305546,4.9823337,-0.12217305,0.095294975,-0.019547688
1757213689795,9.002198,-4.2305546,4.9823337,0.45448375,0.46670106,-0.02076942
1757213689854,8.803479,-6.361394,5.351041,0.45448375,0.46670106,-0.02076942
1757213689855,8.803479,-6.361394,5.351041,-0.41050145,0.096516706,0.035430185
1757213689914,8.094796,-5.463568,5.509058,-0.41050145,0.096516706,0.035430185
1757213689917,8.094796,-5.463568,5.509058,0.2284636,-0.0012217305,0.10751228
1757213689974,6.576872,-4.2544966,4.9344497,0.2284636,-0.0012217305,0.10751228
1757213689976,6.576872,-4.2544966,4.9344497,-0.096516706,0.080634214,0.13561209
1757213690034,4.369418,-2.2744915,3.8307228,-0.096516706,0.080634214,0.13561209
1757213690035,4.369418,-2.2744915,3.8307228,-0.03176499,0.1001819,0.04153884
1757213690092,2.4229321,-1.4796166,1.4269443,-0.03176499,0.1001819,0.04153884
1757213690094,2.4229321,-1.4796166,1.4269443,0.30787608,0.36896262,0.008552114
1757213690154,0.6631939,-1.2282255,0.7158663,0.30787608,0.36896262,0.008552114
1757213690155,0.6631939,-1.2282255,0.7158663,0.5412266,0.36651915,-0.0012217305
1757213690214,1.4700398,0.23463176,2.27928,0.5412266,0.36651915,-0.0012217305
1757213690215,1.4700398,0.23463176,2.27928,0.07819075,0.44593164,0.10629055
1757213690274,8.26239,-4.7022123,7.9990277,0.07819075,0.44593164,0.10629055
1757213690275,8.26239,-4.7022123,7.9990277,-1.2986995,0.12583824,0.27977628
1757213690333,8.4587145,-7.1634517,8.42759,-1.2986995,0.12583824,0.27977628
1757213690335,8.4587145,-7.1634517,8.42759,0.4447099,-0.19792034,-0.20647246
1757213690388,5.815516,-2.504335,5.829881,0.4447099,-0.19792034,-0.20647246
1757213690389,5.815516,-2.504335,5.829881,0.8417723,0.5363397,-0.062308256
1757213690449,5.7867856,-3.7301662,4.9775453,0.8417723,0.5363397,-0.062308256
1757213690450,5.7867856,-3.7301662,4.9775453,0.20158553,0.42394048,0.05009095
1757213690510,6.133945,-3.4835634,5.195418,0.20158553,0.42394048,0.05009095
1757213690512,6.133945,-3.4835634,5.195418,-0.5888741,0.018325957,-0.02565634
1757213690572,5.849035,-4.6255975,7.1993647,-0.5888741,0.018325957,-0.02565634
1757213690574,5.849035,-4.6255975,7.1993647,-0.42271876,-0.19792034,-0.02443461
1757213690633,5.3725886,-3.5194764,6.078878,-0.42271876,-0.19792034,-0.02443461
1757213690634,5.3725886,-3.5194764,6.078878,-0.17470746,-0.33475417,-0.05009095
1757213690693,5.12838,-3.2249897,4.9799395,-0.17470746,-0.33475417,-0.05009095
1757213690694,5.12838,-3.2249897,4.9799395,-1.0079277,-0.5021312,0.15149458
1757213690751,4.122815,-2.4516625,4.4580035,-1.0079277,-0.5021312,0.15149458
1757213690752,4.122815,-2.4516625,4.4580035,-0.50579643,-0.48991394,0.02076942
1757213690797,3.095703,-2.954445,2.9161377,-0.50579643,-0.48991394,0.02076942
1757213690799,3.095703,-2.954445,2.9161377,0.08307768,-0.49235737,-0.18448131
1757213690858,4.3478703,-1.6400281,0.12928689,0.08307768,-0.49235737,-0.18448131
1757213690860,4.3478703,-1.6400281,0.12928689,0.49235737,-0.09040806,-0.17348573
1757213690917,4.086902,-2.0254946,1.7022774,0.49235737,-0.09040806,-0.17348573
1757213690918,4.086902,-2.0254946,1.7022774,-0.17959438,-0.087964594,0.0036651916
1757213690976,4.7189717,-3.8833952,3.1986535,-0.17959438,-0.087964594,0.0036651916
1757213690978,4.7189717,-3.8833952,3.1986535,-0.29810223,0.1001819,0.2125811
1757213691037,7.8290396,-5.6910176,5.2049947,-0.29810223,0.1001819,0.2125811
1757213691039,7.8290396,-5.6910176,5.2049947,-0.47525316,0.19914207,0.096516706
1757213691093,7.098808,-5.7484784,5.865794,-0.47525316,0.19914207,0.096516706
1757213691094,7.098808,-5.7484784,5.865794,0.05131268,0.3042109,0.064751714
1757213691155,8.494628,-6.05733,5.5617304,0.05131268,0.3042109,0.064751714
1757213691156,8.494628,-6.05733,5.5617304,0.4801401,-0.080634214,-0.1160644
1757213691216,8.930372,-6.969521,4.8578353,0.4801401,-0.080634214,-0.1160644
1757213691218,8.930372,-6.969521,4.8578353,0.19914207,-0.030543262,-0.30176744
1757213691276,8.0445175,-6.3302693,6.9719152,0.19914207,-0.030543262,-0.30176744
1757213691278,8.0445175,-6.3302693,6.9719152,0.18081611,-0.087964594,-0.0842994
1757213691338,8.911219,-7.3310456,5.9639564,0.18081611,-0.087964594,-0.0842994
1757213691340,8.911219,-7.3310456,5.9639564,0.59131753,-0.02565634,-0.22235495
1757213691397,9.31105,-7.0221934,6.2512608,0.59131753,-0.02565634,-0.22235495
1757213691398,9.31105,-7.0221934,6.2512608,-0.34208453,0.036651913,0.065973446
1757213691456,11.769896,-6.220136,9.452309,-0.34208453,0.036651913,0.065973446
1757213691458,11.769896,-6.220136,9.452309,-0.31398472,0.057421334,-0.061086524
1757213691518,10.383653,-7.03177,9.085996,-0.31398472,0.057421334,-0.061086524
1757213691521,10.383653,-7.03177,9.085996,0.48991394,0.059864793,-0.18203785
1757213691577,11.252748,-6.71813,7.9224133,0.48991394,0.059864793,-0.18203785
1757213691578,11.252748,-6.71813,7.9224133,-0.24556783,0.015882496,-0.10873401
1757213691637,9.387665,-6.4763155,8.523358,-0.24556783,0.015882496,-0.10873401
1757213691639,9.387665,-6.4763155,8.523358,0.3494149,0.17715092,-0.065973446
1757213691697,8.544906,-6.042965,5.9304376,0.3494149,0.17715092,-0.065973446
1757213691699,8.544906,-6.042965,5.9304376,-0.28710666,0.1600467,-0.028099801
1757213691756,8.494628,-5.0134583,5.3438582,-0.28710666,0.1600467,-0.028099801
1757213691758,8.494628,-5.0134583,5.3438582,0.9016371,0.5742133,-0.20891592
1757213691817,7.457938,-4.795586,4.5633483,0.9016371,0.5742133,-0.20891592
1757213691818,7.457938,-4.795586,4.5633483,-0.4361578,0.35796702,0.021991149
1757213691877,7.038953,-4.9679685,5.90889,-0.4361578,0.35796702,0.021991149
1757213691878,7.038953,-4.9679685,5.90889,0.29565877,0.7806858,-0.14294247
1757213691936,8.882488,-5.686229,6.655881,0.29565877,0.7806858,-0.14294247
1757213691938,8.882488,-5.686229,6.655881,-0.5216789,0.79534656,-0.1441642
1757213691997,6.2464724,-5.777209,7.608773,-0.5216789,0.79534656,-0.1441642
1757213691999,6.2464724,-5.777209,7.608773,-0.8332202,0.45814893,0.26511553
1757213692056,6.05733,-3.8953662,7.489063,-0.8332202,0.45814893,0.26511553
1757213692058,6.05733,-3.8953662,7.489063,-0.25900686,0.24801129,0.18570304
1757213692116,3.6535518,-3.560178,4.309563,-0.25900686,0.24801129,0.18570304
1757213692118,3.6535518,-3.560178,4.309563,-0.31764993,-0.36163223,0.07574729
1757213692177,2.315193,-1.5610195,2.7964275,-0.31764993,-0.36163223,0.07574729
1757213692178,2.315193,-1.5610195,2.7964275,-0.31642818,-0.37995818,-0.002443461
1757213692236,0.32800564,-1.8507179,1.5873557,-0.31642818,-0.37995818,-0.002443461
1757213692238,0.32800564,-1.8507179,1.5873557,0.008552114,-0.13439035,0.03176499
1757213692296,0.545878,-0.11971009,0.6703765,0.008552114,-0.13439035,0.03176499
1757213692298,0.545878,-0.11971009,0.6703765,0.37018433,0.3359759,0.312763
1757213692356,4.8817773,-2.8299465,5.6670756,0.37018433,0.3359759,0.312763
1757213692357,4.8817773,-2.8299465,5.6670756,1.1129965,0.74036866,0.6414085
1757213692416,9.41879,-5.734113,8.6095495,1.1129965,0.74036866,0.6414085
1757213692418,9.41879,-5.734113,8.6095495,-1.7421877,-0.5815437,0.39950588
1757213692471,3.9935284,-6.9264255,7.941567,-1.7421877,-0.5815437,0.39950588
1757213692471,3.9935284,-6.9264255,7.941567,-0.6646214,-0.047647487,-0.13316862
1757213692531,4.687847,-4.177882,5.638345,-0.6646214,-0.047647487,-0.13316862
1757213692531,4.687847,-4.177882,5.638345,1.3414601,0.4886922,0.0720821
1757213692574,5.7508726,-5.116409,4.4340615,1.3414601,0.4886922,0.0720821
1757213692575,5.7508726,-5.116409,4.4340615,0.68661255,0.23335053,-0.0061086523
1757213692638,5.849035,-3.6224272,5.482722,0.68661255,0.23335053,-0.0061086523
1757213692640,5.849035,-3.6224272,5.482722,-0.5412266,-0.26633725,-0.09896017
1757213692696,4.582502,-5.485116,7.7093296,-0.5412266,-0.26633725,-0.09896017
1757213692697,4.582502,-5.485116,7.7093296,-1.128879,-0.21502456,-0.06841691
1757213692756,5.1762643,-5.5641246,6.83784,-1.128879,-0.21502456,-0.06841691
1757213692757,5.1762643,-5.5641246,6.83784,0.15760323,-0.27488935,-0.12339478
1757213692817,4.6591167,-4.2305546,4.8817773,0.15760323,-0.27488935,-0.12339478
1757213692818,4.6591167,-4.2305546,4.8817773,0.02565634,-0.3555236,-0.065973446
1757213692877,3.8259344,-4.292804,5.104438,0.02565634,-0.3555236,-0.065973446
1757213692879,3.8259344,-4.292804,5.104438,-0.5729916,-0.50335294,0.07574729
1757213692938,3.9001546,-2.693477,4.3023806,-0.5729916,-0.50335294,0.07574729
1757213692940,3.9001546,-2.693477,4.3023806,0.24312437,-0.63407815,-0.14782938
1757213692996,3.4452562,-2.5833437,2.1547816,0.24312437,-0.63407815,-0.14782938
1757213692998,3.4452562,-2.5833437,2.1547816,0.6291912,-0.37873647,-0.33475417
1757213693056,4.5298295,-3.0142999,1.9680338,0.6291912,-0.37873647,-0.33475417
1757213693057,4.5298295,-3.0142999,1.9680338,0.23823744,-0.18325958,-0.18081611
1757213693120,5.6215854,-3.6391866,2.9855695,0.23823744,-0.18325958,-0.18081611
1757213693122,5.6215854,-3.6391866,2.9855695,0.376293,0.119729586,-0.12950343
1757213693176,6.483498,-5.0613422,4.1299977,0.376293,0.119729586,-0.12950343
1757213693177,6.483498,-5.0613422,4.1299977,-0.29077184,0.18936823,0.002443461
1757213693234,6.945579,-5.2145715,4.9224787,-0.29077184,0.18936823,0.002443461
1757213693235,6.945579,-5.2145715,4.9224787,0.43004912,0.33841935,-0.089186326
1757213693292,6.385336,-6.5840545,5.580884,0.43004912,0.33841935,-0.089186326
1757213693292,6.385336,-6.5840545,5.580884,-0.3567453,0.040317107,0.10262536
1757213693353,7.2233067,-5.631162,6.301539,-0.3567453,0.040317107,0.10262536
1757213693354,7.2233067,-5.631162,6.301539,0.7855727,0.15760323,-0.035430185
1757213693414,8.106767,-6.6510925,6.682217,0.7855727,0.15760323,-0.035430185
1757213693416,8.106767,-6.6510925,6.682217,-0.6291912,-0.032986723,-0.047647487
1757213693476,8.420407,-6.5984197,6.8306575,-0.6291912,-0.032986723,-0.047647487
1757213693477,8.420407,-6.5984197,6.8306575,-0.3481932,0.036651913,0.05375614
1757213693535,7.6614456,-8.255207,7.302315,-0.3481932,0.036651913,0.05375614
1757213693537,7.6614456,-8.255207,7.302315,0.15882497,0.3567453,-0.119729586
1757213693596,9.797073,-8.578424,8.734048,0.15882497,0.3567453,-0.119729586
1757213693598,9.797073,-8.578424,8.734048,-0.53878313,-0.07574729,0.07941248
1757213693656,10.582372,-7.3430166,10.290278,-0.53878313,-0.07574729,0.07941248
1757213693657,10.582372,-7.3430166,10.290278,0.41050145,0.043982297,-0.32498032
1757213693716,11.099519,-8.748413,8.956709,0.41050145,0.043982297,-0.32498032
1757213693717,11.099519,-8.748413,8.956709,-0.5815437,-0.04520403,0.035430185
1757213693774,10.132261,-8.001422,10.120291,-0.5815437,-0.04520403,0.035430185
1757213693776,10.132261,-8.001422,10.120291,-1.0885619,0.23335053,-0.17959438
1757213693835,8.248025,-5.511452,6.131551,-1.0885619,0.23335053,-0.17959438
1757213693836,8.248025,-5.511452,6.131551,1.047023,0.2003638,-0.22968534
1757213693896,6.9503675,-7.560889,3.5075054,1.047023,0.2003638,-0.22968534
1757213693897,6.9503675,-7.560889,3.5075054,-0.84788096,-0.25167647,0.096516706
1757213693953,8.046912,-4.8841715,3.9671922,-0.84788096,-0.25167647,0.096516706
1757213693954,8.046912,-4.8841715,3.9671922,-0.19181168,-0.40317106,-0.037873644
1757213694014,7.5345526,-7.1826053,3.7804444,-0.19181168,-0.40317106,-0.037873644
1757213694016,7.5345526,-7.1826053,3.7804444,-0.79534656,-0.7086037,-0.10262536
1757213694075,7.1107793,-6.7923503,6.493075,-0.79534656,-0.7086037,-0.10262536
1757213694077,7.1107793,-6.7923503,6.493075,-0.41172317,-0.24801129,-0.081855945
1757213694134,7.0485296,-7.467515,4.915296,-0.41172317,-0.24801129,-0.081855945
1757213694136,7.0485296,-7.467515,4.915296,-0.24190263,-0.31520647,0.07574729
1757213694194,6.9599442,-5.9543796,2.4851813,-0.24190263,-0.31520647,0.07574729
1757213694196,6.9599442,-5.9543796,2.4851813,-0.64996064,-0.018325957,0.073303826
1757213694255,4.0342298,-3.3542767,4.2281604,-0.64996064,-0.018325957,0.073303826
1757213694256,4.0342298,-3.3542767,4.2281604,-0.22357668,0.047647487,0.32253686
1757213694315,2.1260512,-3.371036,2.1523874,-0.22357668,0.047647487,0.32253686
1757213694317,2.1260512,-3.371036,2.1523874,-0.24190263,-0.09407325,0.30176744
1757213694374,1.9033904,-0.7637503,0.9816227,-0.24190263,-0.09407325,0.30176744
1757213694375,1.9033904,-0.7637503,0.9816227,0.09773844,0.3921755,0.21135938
1757213694433,2.1140802,-0.40701428,1.7046716,0.09773844,0.3921755,0.21135938
1757213694435,2.1140802,-0.40701428,1.7046716,1.0372492,0.62796944,0.16615535
1757213694493,6.1100025,-3.3638535,4.3502645,1.0372492,0.62796944,0.16615535
1757213694495,6.1100025,-3.3638535,4.3502645,0.3359759,0.04153884,0.17837265
1757213694555,7.9726915,-8.11395,7.9343843,0.3359759,0.04153884,0.17837265
1757213694556,7.9726915,-8.11395,7.9343843,-0.9578367,-0.52534413,-0.21502456
1757213694611,6.3685765,-6.136339,5.425261,-0.9578367,-0.52534413,-0.21502456
1757213694612,6.3685765,-6.136339,5.425261,1.0152581,0.028099801,-0.25900686
1757213694669,5.638345,-4.96318,4.663905,1.0152581,0.028099801,-0.25900686
1757213694670,5.638345,-4.96318,4.663905,0.37018433,0.27122417,0.16249016
1757213694734,5.758055,-4.4005427,3.8163576,0.37018433,0.27122417,0.16249016
1757213694735,5.758055,-4.4005427,3.8163576,0.5888741,-0.13927728,-0.039095376
1757213694793,6.0046577,-4.7141833,4.3526587,0.5888741,-0.13927728,-0.039095376
1757213694794,6.0046577,-4.7141833,4.3526587,-0.54000485,-0.29932398,0.02076942
1757213694853,5.839458,-4.477157,5.5521536,-0.54000485,-0.29932398,0.02076942
1757213694855,5.839458,-4.477157,5.5521536,-0.52412236,-0.3042109,-0.06841691
1757213694913,5.7005944,-4.5418005,4.642357,-0.52412236,-0.3042109,-0.06841691
1757213694915,5.7005944,-4.5418005,4.642357,-0.6035349,-0.37384954,-0.28344148
1757213694974,4.0773253,-3.6343982,3.1866825,-0.6035349,-0.37384954,-0.28344148
1757213694976,4.0773253,-3.6343982,3.1866825,-0.04153884,-0.2003638,-0.17592919
1757213695034,3.9456444,-3.4955344,1.2090719,-0.04153884,-0.2003638,-0.17592919
1757213695036,3.9456444,-3.4955344,1.2090719,0.41050145,-0.042760566,0.034208454
1757213695094,5.7987566,-4.309563,0.92416185,0.41050145,-0.042760566,0.034208454
1757213695095,5.7987566,-4.309563,0.92416185,0.06352998,0.07452556,0.172264
1757213695152,4.5992613,-3.6008794,1.9297266,0.06352998,0.07452556,0.172264
1757213695154,4.5992613,-3.6008794,1.9297266,0.08552113,0.13194689,0.13805555
1757213695213,5.12838,-5.475539,4.225766,0.08552113,0.13194689,0.13805555
1757213695214,5.12838,-5.475539,4.225766,0.29932398,0.22113322,0.07452556
1757213695269,6.0238113,-5.8681884,4.426879,0.29932398,0.22113322,0.07452556
1757213695270,6.0238113,-5.8681884,4.426879,-0.21868975,0.09407325,0.06841691
1757213695328,7.098808,-6.71813,6.279991,-0.21868975,0.09407325,0.06841691
1757213695329,7.098808,-6.71813,6.279991,0.9944886,0.4373795,-0.2003638
1757213695389,7.21373,-6.3063273,4.7022123,0.9944886,0.4373795,-0.2003638
1757213695389,7.21373,-6.3063273,4.7022123,-0.014660766,0.07452556,0.0012217305
1757213695451,6.6726403,-5.149928,6.631939,-0.014660766,0.07452556,0.0012217305
1757213695452,6.6726403,-5.149928,6.631939,0.5546656,-0.10873401,-0.26633725
1757213695510,8.978256,-7.431602,4.2904096,0.5546656,-0.10873401,-0.26633725
1757213695512,8.978256,-7.431602,4.2904096,0.51923543,-0.13316862,-0.12950343
1757213695572,8.133103,-3.9097314,6.943185,0.51923543,-0.13316862,-0.12950343
1757213695574,8.133103,-3.9097314,6.943185,-0.5546656,0.081855945,-0.18325958
1757213695633,9.052477,-7.773973,6.145916,-0.5546656,0.081855945,-0.18325958
1757213695636,9.052477,-7.773973,6.145916,0.39828414,0.1600467,-0.19792034
1757213695693,9.9550905,-7.4986396,8.078036,0.39828414,0.1600467,-0.19792034
1757213695694,9.9550905,-7.4986396,8.078036,-0.47036624,-0.019547688,-0.119729586
1757213695753,8.935161,-9.186552,8.616732,-0.47036624,-0.019547688,-0.119729586
1757213695754,8.935161,-9.186552,8.616732,-0.05375614,-0.02321288,-0.10751228
1757213695812,10.857705,-6.4020953,9.504981,-0.05375614,-0.02321288,-0.10751228
1757213695814,10.857705,-6.4020953,9.504981,-0.20647246,-0.20525073,-0.095294975
1757213695872,10.175357,-7.5680714,6.7372837,-0.20647246,-0.20525073,-0.095294975
1757213695874,10.175357,-7.5680714,6.7372837,0.48502702,-0.17959438,-0.20891592
1757213695933,9.574412,-4.213795,5.3725886,0.48502702,-0.17959438,-0.20891592
1757213695934,9.574412,-4.213795,5.3725886,-0.83077675,-0.009773844,-0.012217305
1757213695991,8.949526,-6.6415157,5.6000376,-0.83077675,-0.009773844,-0.012217305
1757213695993,8.949526,-6.6415157,5.6000376,-0.7855727,0.675617,0.376293
1757213696052,6.4763155,-8.214506,5.813122,-0.7855727,0.675617,0.376293
1757213696054,6.4763155,-8.214506,5.813122,0.05009095,0.49113566,0.32620203
1757213696112,6.555324,-8.061277,3.2202013,0.05009095,0.49113566,0.32620203
1757213696113,6.555324,-8.061277,3.2202013,0.29565877,-0.20891592,0.021991149
1757213696172,8.470686,-5.9807158,3.9025488,0.29565877,-0.20891592,0.021991149
1757213696174,8.470686,-5.9807158,3.9025488,-0.9810496,0.2919936,0.52778757
1757213696233,6.703765,-8.0445175,5.518635,-0.9810496,0.2919936,0.52778757
1757213696235,6.703765,-8.0445175,5.518635,-1.6200147,0.02443461,0.54367006
1757213696292,7.1730285,-9.100361,1.9129672,-1.6200147,0.02443461,0.54367006
1757213696293,7.1730285,-9.100361,1.9129672,-0.625526,-0.68294734,-0.22724187
1757213696351,4.5441947,-1.508347,3.490746,-0.625526,-0.68294734,-0.22724187
1757213696352,4.5441947,-1.508347,3.490746,-0.18448131,-1.0726794,-0.829555
1757213696412,2.4588451,-4.19943,3.074155,-0.18448131,-1.0726794,-0.829555
1757213696413,2.4588451,-4.19943,3.074155,-0.2284636,-0.91996306,-0.49357912
1757213696470,1.4580688,-0.49320555,0.36152446,-0.2284636,-0.91996306,-0.49357912
1757213696473,1.4580688,-0.49320555,0.36152446,0.41050145,-0.23579398,-0.21868975
1757213696529,2.2649148,-1.7070658,1.460463,0.41050145,-0.23579398,-0.21868975
1757213696529,2.2649148,-1.7070658,1.460463,0.39828414,0.4361578,0.12950343
1757213696592,6.4763155,-3.5242648,3.7445314,0.39828414,0.4361578,0.12950343
1757213696593,6.4763155,-3.5242648,3.7445314,0.8906415,0.20647246,0.25167647
1757213696646,10.086772,-11.142614,5.8562174,0.8906415,0.20647246,0.25167647
1757213696648,10.086772,-11.142614,5.8562174,-1.1166617,-0.78801614,0.112399206
1757213696706,5.7245364,-4.1299977,4.735731,-1.1166617,-0.78801614,0.112399206
1757213696706,5.7245364,-4.1299977,4.735731,1.2913691,0.37873647,-0.38362336
1757213696766,6.3350577,-3.7924154,3.2585084,1.2913691,0.37873647,-0.38362336
1757213696767,6.3350577,-3.7924154,3.2585084,0.2602286,0.28099802,0.30787608
1757213696829,6.1195793,-5.853823,2.6839,0.2602286,0.28099802,0.30787608
1757213696830,6.1195793,-5.853823,2.6839,0.28221974,-0.12217305,-0.04153884
1757213696890,7.2927384,-3.727772,3.9600096,0.28221974,-0.12217305,-0.04153884
1757213696892,7.2927384,-3.727772,3.9600096,-0.56688297,-0.27488935,-0.034208454
1757213696949,6.4882865,-5.363012,5.1882353,-0.56688297,-0.27488935,-0.034208454
1757213696950,6.4882865,-5.363012,5.1882353,-0.064751714,-0.07452556,-0.0012217305
1757213697010,5.45878,-4.8243165,3.7565024,-0.064751714,-0.07452556,-0.0012217305
1757213697012,5.45878,-4.8243165,3.7565024,-0.118507855,-0.52778757,-0.14294247
1757213697069,4.4244847,-4.201824,2.5737667,-0.118507855,-0.52778757,-0.14294247
1757213697070,4.4244847,-4.201824,2.5737667,0.73914695,-0.52656585,-0.24678956
1757213697132,5.1786585,-2.717419,2.1212628,0.73914695,-0.52656585,-0.24678956
1757213697134,5.1786585,-2.717419,2.1212628,0.8552113,-0.37140608,-0.23701571
1757213697190,6.2823853,-2.5761611,0.6560113,0.8552113,-0.37140608,-0.23701571
1757213697192,6.2823853,-2.5761611,0.6560113,0.8222246,0.14905111,-0.14172074
1757213697250,6.4523735,-5.209783,2.1499932,0.8222246,0.14905111,-0.14172074
1757213697252,6.4523735,-5.209783,2.1499932,0.18081611,0.35430184,0.09773844
1757213697310,6.4068837,-3.8498764,3.1364043,0.18081611,0.35430184,0.09773844
1757213697311,6.4068837,-3.8498764,3.1364043,0.95539325,0.5876524,0.004886922
1757213697367,6.2632318,-5.3342814,3.9911342,0.95539325,0.5876524,0.004886922
1757213697369,6.2632318,-5.3342814,3.9911342,-0.38728857,0.39584067,0.19547687
1757213697426,6.1100025,-5.2480903,5.9639564,-0.38728857,0.39584067,0.19547687
1757213697427,6.1100025,-5.2480903,5.9639564,-0.04153884,0.18081611,0.30909783
1757213697487,7.2233067,-6.9647326,3.7086184,-0.04153884,0.18081611,0.30909783
1757213697488,7.2233067,-6.9647326,3.7086184,-0.14049901,-0.03176499,0.16126843
1757213697548,8.425196,-4.572925,5.415684,-0.14049901,-0.03176499,0.16126843
1757213697549,8.425196,-4.572925,5.415684,-0.13072516,0.008552114,0.06841691
1757213697610,9.088389,-6.897695,4.876989,-0.13072516,0.008552114,0.06841691
1757213697612,9.088389,-6.897695,4.876989,0.119729586,0.05009095,-0.062308256
1757213697669,8.748413,-6.117185,6.3422403,0.119729586,0.05009095,-0.062308256
1757213697671,8.748413,-6.117185,6.3422403,0.008552114,-0.16615535,-0.089186326
1757213697730,9.066842,-9.7084875,4.8099513,0.008552114,-0.16615535,-0.089186326
1757213697732,9.066842,-9.7084875,4.8099513,-0.008552114,-0.25900686,-0.089186326
1757213697789,10.443508,-6.2105594,8.090008,-0.008552114,-0.25900686,-0.089186326
1757213697792,10.443508,-6.2105594,8.090008,-0.16126843,-0.032986723,-0.096516706
1757213697848,11.042058,-8.635885,6.3446345,-0.16126843,-0.032986723,-0.096516706
1757213697850,11.042058,-8.635885,6.3446345,0.6059783,0.07086037,-0.05131268
1757213697904,11.537658,-5.3582234,7.541735,0.6059783,0.07086037,-0.05131268
1757213697904,11.537658,-5.3582234,7.541735,-0.83199847,0.06841691,0.10262536
1757213697968,9.730036,-7.6973586,6.196194,-0.83199847,0.06841691,0.10262536
1757213697970,9.730036,-7.6973586,6.196194,1.391551,0.3213151,-0.13683382
1757213698030,8.611943,-4.6375685,5.805939,1.391551,0.3213151,-0.13683382
1757213698031,8.611943,-4.6375685,5.805939,-0.25411993,0.043982297,-0.059864793
1757213698088,8.7125,-6.279991,4.7285485,-0.25411993,0.043982297,-0.059864793
1757213698089,8.7125,-6.279991,4.7285485,0.08552113,0.13805555,0.07819075
1757213698148,8.42759,-6.71813,5.0493712,0.08552113,0.13805555,0.07819075
1757213698150,8.42759,-6.71813,5.0493712,-0.07696902,0.15027285,-0.014660766
1757213698208,8.719683,-6.9120603,5.2863975,-0.07696902,0.15027285,-0.014660766
1757213698209,8.719683,-6.9120603,5.2863975,0.16249016,0.36163223,-0.013439035
1757213698268,8.652645,-5.9160724,6.0381765,0.16249016,0.36163223,-0.013439035
1757213698270,8.652645,-5.9160724,6.0381765,-0.24556783,0.39584067,0.17104226
1757213698324,8.051701,-6.55293,6.0238113,-0.24556783,0.39584067,0.17104226
1757213698324,8.051701,-6.55293,6.0238113,0.4728097,0.65118235,0.09773844
1757213698386,7.2951326,-4.7644615,5.209783,0.4728097,0.65118235,0.09773844
1757213698388,7.2951326,-4.7644615,5.209783,-0.44593164,0.2883284,0.1881465
1757213698448,6.399701,-4.2544966,4.5777135,-0.44593164,0.2883284,0.1881465
1757213698450,6.399701,-4.2544966,4.5777135,-0.39950588,0.15882497,0.13316862
1757213698508,4.450821,-2.906561,3.3854012,-0.39950588,0.15882497,0.13316862
1757213698509,4.450821,-2.906561,3.3854012,-0.45448375,-0.05131268,-0.04153884
1757213698568,1.8052281,-1.5346833,2.731784,-0.45448375,-0.05131268,-0.04153884
1757213698569,1.8052281,-1.5346833,2.731784,0.07452556,0.6035349,-0.07819075
1757213698628,-0.58418524,-1.42455,0.8882488,0.07452556,0.6035349,-0.07819075
1757213698630,-0.58418524,-1.42455,0.8882488,0.86132,0.8539896,-0.50335294
1757213698689,2.030283,-2.4875755,1.8914193,0.86132,0.8539896,-0.50335294
1757213698691,2.030283,-2.4875755,1.8914193,1.7592919,1.0128145,-0.38362336
1757213698746,5.2744265,1.5801731,6.8785415,1.7592919,1.0128145,-0.38362336
1757213698748,5.2744265,1.5801731,6.8785415,-1.1154399,-0.59864795,0.6658431
1757213698810,8.542512,-7.989451,9.457097,-1.1154399,-0.59864795,0.6658431
1757213698812,8.542512,-7.989451,9.457097,-1.7580702,0.17470746,0.66339964
1757213698863,3.7469256,-3.4715924,5.595249,-1.7580702,0.17470746,0.66339964
1757213698864,3.7469256,-3.4715924,5.595249,1.0592403,1.2547172,0.3726278
1757213698923,1.3335704,-1.6807296,5.9448028,1.0592403,1.2547172,0.3726278
1757213698924,1.3335704,-1.6807296,5.9448028,1.9120082,0.4166101,0.9615019
1757213698985,4.51307,-2.3798366,4.7907977,1.9120082,0.4166101,0.9615019
1757213698986,4.51307,-2.3798366,4.7907977,5.7836723,1.1655309,1.1667526
1757213699047,2.2984335,0.89782566,10.915166,5.7836723,1.1655309,1.1667526
1757213699049,2.2984335,0.89782566,10.915166,4.510629,2.4972172,0.90408057
1757213699103,1.30484,0.91458505,8.161834,4.510629,2.4972172,0.90408057
1757213699104,1.30484,0.91458505,8.161834,5.825211,2.910162,-0.07452556
1757213699165,-1.3383588,7.33344,9.351752,5.825211,2.910162,-0.07452556
1757213699167,-1.3383588,7.33344,9.351752,0.1563815,1.9327776,0.22235495
1757213699226,-1.1492168,5.145139,10.9822035,0.1563815,1.9327776,0.22235495
1757213699229,-1.1492168,5.145139,10.9822035,-0.36651915,1.2559389,0.47647488
1757213699286,-1.5586253,5.142745,11.025299,-0.36651915,1.2559389,0.47647488
1757213699288,-1.5586253,5.142745,11.025299,0.07574729,0.5705481,0.66950834
1757213699347,-0.40701428,2.9281087,7.884106,0.07574729,0.5705481,0.66950834
1757213699349,-0.40701428,2.9281087,7.884106,-0.59864795,0.16249016,0.9761627
1757213699408,-0.5770026,4.417302,8.772355,-0.59864795,0.16249016,0.9761627
1757213699409,-0.5770026,4.417302,8.772355,-0.081855945,0.43249258,0.19058995
1757213699466,-0.91697925,4.793192,9.725247,-0.081855945,0.43249258,0.19058995
1757213699467,-0.91697925,4.793192,9.725247,-0.20891592,0.2846632,0.26145032
1757213699526,-0.50517654,4.086902,6.591237,-0.20891592,0.2846632,0.26145032
1757213699528,-0.50517654,4.086902,6.591237,0.012217305,0.46670106,0.015882496
1757213699581,-1.6950948,4.4484267,10.201694,0.012217305,0.46670106,0.015882496
1757213699583,-1.6950948,4.4484267,10.201694,0.3567453,0.25534168,0.12095132
