timestamp,ax,ay,az,gx,gy,gz
1757748431231,0.2705448,1.5514427,9.830592,-0.35308012,-0.007330383,0.080634214
1757748431232,0.2705448,1.5514427,9.830592,-0.21380283,-0.080634214,-0.02321288
1757748431232,0.5243302,1.0366893,10.1226845,-0.21380283,-0.080634214,-0.02321288
1757748431232,0.5243302,1.0366893,10.1226845,0.59131753,-0.021991149,0.05497787
1757748431245,0.46447513,0.79248077,10.601525,0.59131753,-0.021991149,0.05497787
1757748431245,0.46447513,0.79248077,10.601525,-0.9370673,-0.26633725,-0.26267207
1757748431265,0.47644615,0.5506664,10.441113,-0.9370673,-0.26633725,-0.26267207
1757748431266,0.47644615,0.5506664,10.441113,-0.7440339,-0.35063666,-0.35308012
1757748431285,1.5993267,-0.23942018,11.171345,-0.7440339,-0.35063666,-0.35308012
1757748431286,1.5993267,-0.23942018,11.171345,-1.3084733,-0.5864306,-0.2773328
1757748431306,1.328782,-0.50517654,11.35091,-1.3084733,-0.5864306,-0.2773328
1757748431306,1.328782,-0.50517654,11.35091,-1.9828686,-0.69027776,-0.21380283
1757748431325,1.7645266,-1.7405846,11.626244,-1.9828686,-0.69027776,-0.21380283
1757748431325,1.7645266,-1.7405846,11.626244,-3.0250046,-0.93218035,-0.25900686
1757748431347,1.8171991,-4.4603977,10.702082,-3.0250046,-0.93218035,-0.25900686
1757748431347,1.8171991,-4.4603977,10.702082,-4.1563272,-1.2168436,-0.36774087
1757748431366,2.542642,-9.390059,11.228806,-4.1563272,-1.2168436,-0.36774087
1757748431367,2.542642,-9.390059,11.228806,-4.81484,-1.5968018,-0.6426302
1757748431387,4.0916905,-12.919112,11.903971,-4.81484,-1.5968018,-0.6426302
1757748431388,4.0916905,-12.919112,11.903971,-5.000543,-1.72264,-1.0922271
1757748431407,3.1364043,-13.175292,10.089166,-5.000543,-1.72264,-1.0922271
1757748431408,3.1364043,-13.175292,10.089166,-5.542991,-1.7055358,-1.4758505
1757748431427,4.0797195,-15.57907,8.755595,-5.542991,-1.7055358,-1.4758505
1757748431428,4.0797195,-15.57907,8.755595,-5.8362064,-2.026851,-2.144137
1757748431446,5.7604494,-13.93186,3.7421372,-5.8362064,-2.026851,-2.144137
1757748431447,5.7604494,-13.93186,3.7421372,-5.6822686,-1.2644911,-3.5149186
1757748431467,5.1762643,-14.7411,3.490746,-5.6822686,-1.2644911,-3.5149186
1757748431468,5.1762643,-14.7411,3.490746,-5.497787,-0.68416905,-4.2626176
1757748431487,4.307169,-9.859323,3.9480386,-5.497787,-0.68416905,-4.2626176
1757748431488,4.307169,-9.859323,3.9480386,-4.56072,0.12217305,-4.714658
1757748431508,3.667917,-7.2113357,1.958457,-4.56072,0.12217305,-4.714658
1757748431509,3.667917,-7.2113357,1.958457,-4.0500364,0.8381071,-4.987104
1757748431527,3.4811692,-5.4085016,0.81642276,-4.0500364,0.8381071,-4.987104
1757748431528,3.4811692,-5.4085016,0.81642276,-3.3573153,1.5332718,-4.9394565
1757748431547,2.4732103,-4.209007,1.9800048,-3.3573153,1.5332718,-4.9394565
1757748431548,2.4732103,-4.209007,1.9800048,-2.3420575,2.1649065,-4.59615
1757748431567,1.6807296,-3.359065,3.3207579,-2.3420575,2.1649065,-4.59615
1757748431568,1.6807296,-3.359065,3.3207579,-1.5076154,2.475226,-4.102571
1757748431588,1.364695,-1.3575124,3.691859,-1.5076154,2.475226,-4.102571
1757748431589,1.364695,-1.3575124,3.691859,-1.0775663,2.5460863,-3.6187658
1757748431607,1.6352397,-0.8643068,3.8594532,-1.0775663,2.5460863,-3.6187658
1757748431608,1.6352397,-0.8643068,3.8594532,-0.6597345,2.488665,-2.6120598
1757748431628,1.8076223,-1.4772224,5.791574,-0.6597345,2.488665,-2.6120598
1757748431629,1.8076223,-1.4772224,5.791574,-0.15393804,2.3237314,-2.0525072
1757748431647,2.2385786,-1.0726024,5.7867856,-0.15393804,2.3237314,-2.0525072
1757748431648,2.2385786,-1.0726024,5.7867856,0.56688297,2.021964,-1.5100589
1757748431668,3.335123,-0.4189853,6.241684,0.56688297,2.021964,-1.5100589
1757748431669,3.335123,-0.4189853,6.241684,1.3817772,1.7446312,-0.9993755
1757748431687,3.9552212,1.436521,9.030929,1.3817772,1.7446312,-0.9993755
1757748431687,3.9552212,1.436521,9.030929,1.4905112,1.4978416,-0.48502702
1757748431708,2.4732103,0.6655881,10.613496,1.4905112,1.4978416,-0.48502702
1757748431709,2.4732103,0.6655881,10.613496,-0.8943067,1.174083,0.15760323
1757748431727,4.197036,-6.361394,8.056489,-0.8943067,1.174083,0.15760323
1757748431728,4.197036,-6.361394,8.056489,-2.32984,0.5143485,0.37751472
1757748431748,3.5817258,-6.9743094,6.579266,-2.32984,0.5143485,0.37751472
1757748431749,3.5817258,-6.9743094,6.579266,-1.2461652,0.30176744,0.66339964
1757748431769,2.6551697,-8.224083,5.925649,-1.2461652,0.30176744,0.66339964
1757748431770,2.6551697,-8.224083,5.925649,-0.1600467,0.12583824,0.6450737
1757748431788,2.980781,-7.405266,7.074866,-0.1600467,0.12583824,0.6450737
1757748431789,2.980781,-7.405266,7.074866,0.59498274,0.10751228,0.4166101
1757748431811,3.2321723,-6.31351,6.8809357,0.59498274,0.10751228,0.4166101
1757748431811,3.2321723,-6.31351,6.8809357,0.3481932,0.12583824,0.3323107
1757748431829,3.454833,-7.656657,5.887342,0.3481932,0.12583824,0.3323107
1757748431830,3.454833,-7.656657,5.887342,-0.1881465,0.10262536,0.33964106
1757748431849,3.2393548,-7.9607205,6.2608376,-0.1881465,0.10262536,0.33964106
1757748431850,3.2393548,-7.9607205,6.2608376,-0.4801401,0.064751714,0.3811799
1757748431871,2.8993783,-7.8290396,6.4308257,-0.4801401,0.064751714,0.3811799
1757748431873,2.8993783,-7.8290396,6.4308257,-0.37018433,0.021991149,0.39950588
1757748431889,3.1052797,-7.8290396,5.911284,-0.37018433,0.021991149,0.39950588
1757748431891,3.1052797,-7.8290396,5.911284,-0.105068825,-0.09162979,0.39095375
1757748431911,3.3925838,-6.8569937,6.078878,-0.105068825,-0.09162979,0.39095375
1757748431913,3.3925838,-6.8569937,6.078878,0.28955013,-0.16615535,0.2968805
1757748431930,3.0382419,-5.410896,6.38773,0.28955013,-0.16615535,0.2968805
1757748431931,3.0382419,-5.410896,6.38773,0.45937067,-0.09285152,0.29810223
1757748431951,3.0358477,-5.746084,6.3901243,0.45937067,-0.09285152,0.29810223
1757748431952,3.0358477,-5.746084,6.3901243,0.036651913,-0.010995574,0.33964106
1757748431970,3.3063924,-6.8689647,6.3542113,0.036651913,-0.010995574,0.33964106
1757748431971,3.3063924,-6.8689647,6.3542113,-0.31398472,0.042760566,0.36163223
1757748431990,3.4859576,-6.303933,6.3589997,-0.31398472,0.042760566,0.36163223
1757748431992,3.4859576,-6.303933,6.3589997,0.37873647,0.052534413,0.26633725
1757748432010,3.289633,-6.2512608,6.145916,0.37873647,0.052534413,0.26633725
1757748432012,3.289633,-6.2512608,6.145916,1.0396926,0.059864793,0.22235495
1757748432031,4.0773253,-4.7979803,6.2943563,1.0396926,0.059864793,0.22235495
1757748432032,4.0773253,-4.7979803,6.2943563,1.1948525,0.09162979,0.21380283
1757748432050,4.31914,-4.4603977,6.0381765,1.1948525,0.09162979,0.21380283
1757748432052,4.31914,-4.4603977,6.0381765,0.7770206,0.18570304,0.22235495
1757748432070,4.594473,-5.463568,5.6096144,0.7770206,0.18570304,0.22235495
1757748432072,4.594473,-5.463568,5.6096144,0.002443461,0.29077184,0.14782938
1757748432090,4.6519337,-7.079654,5.872977,0.002443461,0.29077184,0.14782938
1757748432091,4.6519337,-7.079654,5.872977,-0.49113566,0.38606682,-0.021991149
1757748432111,5.449203,-8.714894,5.279215,-0.49113566,0.38606682,-0.021991149
1757748432113,5.449203,-8.714894,5.279215,-0.5021312,0.43127087,-0.21868975
1757748432131,6.4068837,-7.819463,5.044583,-0.5021312,0.43127087,-0.21868975
1757748432133,6.4068837,-7.819463,5.044583,0.9896017,0.61819565,-0.5864306
1757748432150,5.533,-4.3382936,7.216124,0.9896017,0.61819565,-0.5864306
1757748432151,5.533,-4.3382936,7.216124,1.0458013,0.7330383,-0.7733554
1757748432170,5.255273,-4.024653,8.190564,1.0458013,0.7330383,-0.7733554
1757748432171,5.255273,-4.024653,8.190564,-0.46181414,0.43371433,-0.766025
1757748432192,4.9176903,-5.044583,7.417237,-0.46181414,0.43371433,-0.766025
1757748432194,4.9176903,-5.044583,7.417237,-1.2925909,0.20891592,-0.6743952
1757748432211,4.618415,-5.29358,6.6295447,-1.2925909,0.20891592,-0.6743952
1757748432212,4.618415,-5.29358,6.6295447,-1.0885619,0.16493362,-0.57910025
1757748432231,4.8841715,-5.0182467,6.2847795,-1.0885619,0.16493362,-0.57910025
1757748432232,4.8841715,-5.0182467,6.2847795,-0.51068336,0.17470746,-0.50579643
1757748432249,5.777209,-4.594473,5.805939,-0.51068336,0.17470746,-0.50579643
1757748432250,5.777209,-4.594473,5.805939,-0.04520403,0.10995574,-0.4202753
1757748432270,6.6510925,-3.7541082,5.475539,-0.04520403,0.10995574,-0.4202753
1757748432273,6.6510925,-3.7541082,5.475539,0.21746802,-0.043982297,-0.3005457
1757748432291,6.6271505,-3.8618474,5.3821654,0.21746802,-0.043982297,-0.3005457
1757748432292,6.6271505,-3.8618474,5.3821654,0.0720821,-0.267559,-0.11362094
1757748432313,6.6726403,-4.7141833,4.9655743,0.0720821,-0.267559,-0.11362094
1757748432316,6.6726403,-4.7141833,4.9655743,-0.47525316,-0.45448375,0.06719518
1757748432330,6.8402343,-5.1666875,4.489128,-0.47525316,-0.45448375,0.06719518
1757748432332,6.8402343,-5.1666875,4.489128,-0.41050145,-0.39950588,0.073303826
1757748432351,7.321469,-4.548983,4.805163,-0.41050145,-0.39950588,0.073303826
1757748432353,7.321469,-4.548983,4.805163,-0.15027285,-0.32742378,0.042760566
1757748432367,6.9503675,-4.4316673,5.0397944,-0.15027285,-0.32742378,0.042760566
1757748432368,6.9503675,-4.4316673,5.0397944,-0.10140363,-0.3323107,0.04886922
1757748432389,5.9878983,-3.7062242,6.1650696,-0.10140363,-0.3323107,0.04886922
1757748432390,5.9878983,-3.7062242,6.1650696,-0.081855945,-0.31887165,0.09896017
1757748432408,4.8985367,-3.5697548,7.5106106,-0.081855945,-0.31887165,0.09896017
1757748432409,4.8985367,-3.5697548,7.5106106,-0.33964106,-0.2968805,0.06719518
1757748432429,3.3063924,-4.271256,7.4962454,-0.33964106,-0.2968805,0.06719518
1757748432430,3.3063924,-4.271256,7.4962454,-0.7367035,-0.39461896,-0.004886922
1757748432448,2.9975405,-4.1299977,6.5218053,-0.7367035,-0.39461896,-0.004886922
1757748432449,2.9975405,-4.1299977,6.5218053,-0.6047566,-0.52534413,-0.07452556
1757748432469,2.765303,-2.4851813,4.8698063,-0.6047566,-0.52534413,-0.07452556
1757748432470,2.765303,-2.4851813,4.8698063,0.037873644,-0.58276546,-0.10629055
1757748432489,2.6551697,-1.5011644,3.7181952,0.037873644,-0.58276546,-0.10629055
1757748432489,2.6551697,-1.5011644,3.7181952,0.032986723,-0.5729916,-0.09773844
1757748432508,2.5258827,-1.5227122,2.2625206,0.032986723,-0.5729916,-0.09773844
1757748432509,2.5258827,-1.5227122,2.2625206,-0.27366763,-0.49968776,-0.052534413
1757748432528,2.6168625,-1.3311762,1.3551182,-0.27366763,-0.49968776,-0.052534413
1757748432528,2.6168625,-1.3311762,1.3551182,-0.4092797,-0.3042109,-0.019547688
1757748432549,2.942474,-1.508347,1.2425907,-0.4092797,-0.3042109,-0.019547688
1757748432549,2.942474,-1.508347,1.2425907,-0.44593164,-0.08674286,-0.017104227
1757748432569,3.3135753,-1.4748282,1.4891934,-0.44593164,-0.08674286,-0.017104227
1757748432569,3.3135753,-1.4748282,1.4891934,-0.5326745,0.1001819,-0.002443461
1757748432589,3.3925838,-1.6041151,1.6400281,-0.5326745,0.1001819,-0.002443461
1757748432589,3.3925838,-1.6041151,1.6400281,-0.6291912,0.17104226,0.021991149
1757748432611,3.4476504,-2.2098482,2.0614076,-0.6291912,0.17104226,0.021991149
1757748432612,3.4476504,-2.2098482,2.0614076,-0.7611381,0.172264,0.034208454
1757748432631,3.430891,-2.9759927,3.0071173,-0.7611381,0.172264,0.034208454
1757748432633,3.430891,-2.9759927,3.0071173,-1.1081096,0.1881465,0.035430185
1757748432651,3.502717,-4.4556093,3.5051112,-1.1081096,0.1881465,0.035430185
1757748432652,3.502717,-4.4556093,3.5051112,-1.078788,0.14294247,0.010995574
1757748432672,3.8714242,-5.097255,3.7612908,-1.078788,0.14294247,0.010995574
1757748432673,3.8714242,-5.097255,3.7612908,-0.5143485,0.096516706,0.0036651916
1757748432691,4.462792,-5.707777,3.7205894,-0.5143485,0.096516706,0.0036651916
1757748432693,4.462792,-5.707777,3.7205894,0.1001819,0.081855945,-0.02687807
1757748432713,4.795586,-5.197812,4.096479,0.1001819,0.081855945,-0.02687807
1757748432714,4.795586,-5.197812,4.096479,0.5045747,0.095294975,-0.09407325
1757748432732,4.3957543,-4.6112323,4.19943,0.5045747,0.095294975,-0.09407325
1757748432733,4.3957543,-4.6112323,4.19943,0.34697145,0.14172074,-0.096516706
1757748432753,5.2169657,-4.8698063,4.084508,0.34697145,0.14172074,-0.096516706
1757748432754,5.2169657,-4.8698063,4.084508,-0.10140363,0.09407325,-0.09773844
1757748432772,5.2887917,-6.361394,4.295198,-0.10140363,0.09407325,-0.09773844
1757748432773,5.2887917,-6.361394,4.295198,-0.16126843,0.12339478,-0.096516706
1757748432793,5.449203,-6.83784,4.675876,-0.16126843,0.12339478,-0.096516706
1757748432794,5.449203,-6.83784,4.675876,0.21135938,0.12461651,-0.09162979
1757748432812,6.0022635,-6.600814,4.8458643,0.21135938,0.12461651,-0.09162979
1757748432813,6.0022635,-6.600814,4.8458643,0.73426,0.030543262,-0.11362094
1757748432832,6.6989765,-6.009446,5.092467,0.73426,0.030543262,-0.11362094
1757748432833,6.6989765,-6.009446,5.092467,0.675617,0.004886922,-0.09773844
1757748432850,6.5218053,-6.5744777,5.6551046,0.675617,0.004886922,-0.09773844
1757748432851,6.5218053,-6.5744777,5.6551046,0.1563815,0.030543262,-0.06963864
1757748432872,6.2464724,-8.4108305,6.172252,0.1563815,0.030543262,-0.06963864
1757748432873,6.2464724,-8.4108305,6.172252,-0.38240165,0.058643065,-0.096516706
1757748432892,6.6247563,-9.069236,6.543353,-0.38240165,0.058643065,-0.096516706
1757748432894,6.6247563,-9.069236,6.543353,-0.5131268,-0.04642576,-0.15271631
1757748432912,8.003817,-9.0429,5.896919,-0.5131268,-0.04642576,-0.15271631
1757748432913,8.003817,-9.0429,5.896919,-0.37140608,-0.21502456,-0.103847094
1757748432931,8.14268,-8.858546,6.05733,-0.37140608,-0.21502456,-0.103847094
1757748432932,8.14268,-8.858546,6.05733,-0.19425514,-0.33108896,-0.008552114
1757748432953,8.468291,-9.275137,6.3901243,-0.19425514,-0.33108896,-0.008552114
1757748432954,8.468291,-9.275137,6.3901243,-0.07696902,-0.43127087,0.04642576
1757748432972,9.323022,-8.293514,7.1227503,-0.07696902,-0.43127087,0.04642576
1757748432974,9.323022,-8.293514,7.1227503,-0.2724459,-0.49846604,0.010995574
1757748432993,9.528923,-9.643845,7.501034,-0.2724459,-0.49846604,0.010995574
1757748432994,9.528923,-9.643845,7.501034,-0.7635816,-0.48258355,-0.028099801
1757748433012,9.679757,-11.295844,8.281544,-0.7635816,-0.48258355,-0.028099801
1757748433014,9.679757,-11.295844,8.281544,-0.6243043,-0.3371976,-0.043982297
1757748433033,10.132261,-11.312603,9.19134,-0.6243043,-0.3371976,-0.043982297
1757748433034,10.132261,-11.312603,9.19134,0.018325957,-0.23457226,-0.04520403
1757748433052,10.627861,-9.792285,9.440337,0.018325957,-0.23457226,-0.04520403
1757748433053,10.627861,-9.792285,9.440337,0.36896262,-0.20158553,-0.010995574
1757748433073,10.821792,-9.68694,9.267955,0.36896262,-0.20158553,-0.010995574
1757748433074,10.821792,-9.68694,9.267955,0.007330383,-0.19425514,-0.036651913
1757748433092,10.5680065,-10.96305,8.350976,0.007330383,-0.19425514,-0.036651913
1757748433093,10.5680065,-10.96305,8.350976,-0.75991637,-0.16371189,-0.1001819
1757748433115,10.407595,-12.433089,7.6111674,-0.75991637,-0.16371189,-0.1001819
1757748433116,10.407595,-12.433089,7.6111674,-0.7770206,-0.089186326,-0.14538592
1757748433132,10.335769,-11.693281,7.8649526,-0.7770206,-0.089186326,-0.14538592
1757748433134,10.335769,-11.693281,7.8649526,0.14782938,0.0036651916,-0.18936823
1757748433153,10.295067,-9.866506,7.9846625,0.14782938,0.0036651916,-0.18936823
1757748433155,10.295067,-9.866506,7.9846625,0.752586,0.07696902,-0.23579398
1757748433172,10.086772,-9.320627,8.23366,0.752586,0.07696902,-0.23579398
1757748433174,10.086772,-9.320627,8.23366,0.6585127,0.07452556,-0.2724459
1757748433193,9.78989,-9.437943,7.8410106,0.6585127,0.07452556,-0.2724459
1757748433194,9.78989,-9.437943,7.8410106,0.47403142,0.073303826,-0.2724459
1757748433213,9.950302,-9.370906,7.302315,0.47403142,0.073303826,-0.2724459
1757748433214,9.950302,-9.370906,7.302315,0.37140608,0.07574729,-0.3005457
1757748433233,9.689334,-8.863335,6.540959,0.37140608,0.07574729,-0.3005457
1757748433234,9.689334,-8.863335,6.540959,0.4007276,0.12339478,-0.3213151
1757748433252,9.234436,-7.967903,6.38773,0.4007276,0.12339478,-0.3213151
1757748433253,9.234436,-7.967903,6.38773,0.44348818,0.1966986,-0.30787608
1757748433272,9.054871,-8.274361,6.157887,0.44348818,0.1966986,-0.30787608
1757748433274,9.054871,-8.274361,6.157887,0.31887165,0.23457226,-0.27122417
1757748433292,9.279925,-8.532935,6.1076083,0.31887165,0.23457226,-0.27122417
1757748433293,9.279925,-8.532935,6.1076083,0.28955013,0.2883284,-0.2321288
1757748433313,8.820239,-8.279149,6.337452,0.28955013,0.2883284,-0.2321288
1757748433315,8.820239,-8.279149,6.337452,0.42760566,0.32498032,-0.1966986
1757748433332,8.446744,-7.929596,6.1985884,0.42760566,0.32498032,-0.1966986
1757748433333,8.446744,-7.929596,6.1985884,0.3371976,0.3359759,-0.17348573
1757748433353,8.231265,-7.8386164,5.896919,0.3371976,0.3359759,-0.17348573
1757748433354,8.231265,-7.8386164,5.896919,0.052534413,0.37507126,-0.18570304
1757748433372,8.087613,-7.943961,6.1387334,0.052534413,0.37507126,-0.18570304
1757748433374,8.087613,-7.943961,6.1387334,-0.10140363,0.42271876,-0.19181168
1757748433393,8.015787,-7.785944,6.1985884,-0.10140363,0.42271876,-0.19181168
1757748433394,8.015787,-7.785944,6.1985884,-0.0036651916,0.43982297,-0.15515977
1757748433412,7.723695,-7.144298,6.232107,-0.0036651916,0.43982297,-0.15515977
1757748433414,7.723695,-7.144298,6.232107,0.29443705,0.43249258,-0.09162979
1757748433433,7.4627266,-6.5601125,6.3302693,0.29443705,0.43249258,-0.09162979
1757748433434,7.4627266,-6.5601125,6.3302693,0.39950588,0.43860126,-0.017104227
1757748433451,7.3789296,-6.528988,6.256049,0.39950588,0.43860126,-0.017104227
1757748433453,7.3789296,-6.528988,6.256049,0.36163223,0.49113566,0.036651913
1757748433473,7.0820484,-6.7229185,6.2464724,0.36163223,0.49113566,0.036651913
1757748433474,7.0820484,-6.7229185,6.2464724,0.30176744,0.54733527,0.073303826
1757748433493,6.2608376,-6.241684,6.191406,0.30176744,0.54733527,0.073303826
1757748433494,6.2608376,-6.241684,6.191406,0.3494149,0.54244834,0.08552113
1757748433514,5.626374,-5.9543796,5.9184666,0.3494149,0.54244834,0.08552113
1757748433515,5.626374,-5.9543796,5.9184666,0.4092797,0.46670106,0.080634214
1757748433533,5.3486466,-5.097255,5.6766524,0.4092797,0.46670106,0.080634214
1757748433534,5.3486466,-5.097255,5.6766524,0.5009095,0.3921755,0.0720821
1757748433553,4.88896,-4.4556093,5.494693,0.5009095,0.3921755,0.0720821
1757748433554,4.88896,-4.4556093,5.494693,0.54367006,0.3213151,0.073303826
1757748433573,4.4101195,-3.9193082,4.831499,0.54367006,0.3213151,0.073303826
1757748433574,4.4101195,-3.9193082,4.831499,0.57910025,0.2443461,0.073303826
1757748433593,4.048595,-3.3518825,4.060566,0.57910025,0.2443461,0.073303826
1757748433594,4.048595,-3.3518825,4.060566,0.5766568,0.2125811,0.061086524
1757748433613,3.8043866,-3.1794999,3.5003228,0.5766568,0.2125811,0.061086524
1757748433614,3.8043866,-3.1794999,3.5003228,0.54367006,0.24190263,0.028099801
1757748433633,3.4356794,-2.3870192,2.908955,0.54367006,0.24190263,0.028099801
1757748433635,3.4356794,-2.3870192,2.908955,0.5375614,0.312763,-0.010995574
1757748433653,2.7509377,-0.61530983,1.8842367,0.5375614,0.312763,-0.010995574
1757748433654,2.7509377,-0.61530983,1.8842367,0.36651915,0.4886922,-0.07574729
1757748433673,1.970428,-0.5243302,1.1252748,0.36651915,0.4886922,-0.07574729
1757748433674,1.970428,-0.5243302,1.1252748,0.073303826,0.6084218,-0.07819075
1757748433692,1.2186487,-0.8283938,0.5770026,0.073303826,0.6084218,-0.07819075
1757748433694,1.2186487,-0.8283938,0.5770026,-0.032986723,0.6585127,-0.1001819
1757748433713,0.6823475,-0.770933,0.10534488,-0.032986723,0.6585127,-0.1001819
1757748433714,0.6823475,-0.770933,0.10534488,0.21624629,0.66339964,-0.09040806
1757748433731,0.533907,-0.007182605,-0.0023942017,0.21624629,0.66339964,-0.09040806
1757748433732,0.533907,-0.007182605,-0.0023942017,0.52412236,0.643852,-0.08307768
1757748433754,0.2633622,0.60812724,0.1604115,0.52412236,0.643852,-0.08307768
1757748433756,0.2633622,0.60812724,0.1604115,0.52534413,0.6133087,-0.018325957
1757748433775,0.5650316,-0.23223756,0.93373865,0.52534413,0.6133087,-0.018325957
1757748433777,0.5650316,-0.23223756,0.93373865,0.21502456,0.52656585,0.111177474
1757748433793,0.7110779,-2.0853498,2.8514943,0.21502456,0.52656585,0.111177474
1757748433795,0.7110779,-2.0853498,2.8514943,0.064751714,0.47403142,0.20891592
1757748433813,1.553837,-2.6767175,4.8817773,0.064751714,0.47403142,0.20891592
1757748433814,1.553837,-2.6767175,4.8817773,0.35796702,0.40439278,0.24556783
1757748433834,4.1156325,-1.7932571,6.9623384,0.35796702,0.40439278,0.24556783
1757748433834,4.1156325,-1.7932571,6.9623384,0.43493605,0.13194689,0.31764993
1757748433851,5.533,-3.5338416,7.6111674,0.43493605,0.13194689,0.31764993
1757748433852,5.533,-3.5338416,7.6111674,-0.16371189,-0.18203785,0.29077184
1757748433873,6.612785,-5.183447,8.698134,-0.16371189,-0.18203785,0.29077184
1757748433875,6.612785,-5.183447,8.698134,-0.47647488,-0.38728857,0.23579398
1757748433891,6.603208,-5.4444146,9.454702,-0.47647488,-0.38728857,0.23579398
1757748433892,6.603208,-5.4444146,9.454702,-0.47158796,-0.40683624,0.16737708
1757748433913,6.3781533,-5.3486466,9.313444,-0.47158796,-0.40683624,0.16737708
1757748433914,6.3781533,-5.3486466,9.313444,-0.48624873,-0.3885103,0.052534413
1757748433932,5.422867,-4.721366,9.224859,-0.48624873,-0.3885103,0.052534413
1757748433933,5.422867,-4.721366,9.224859,-0.33841935,-0.20891592,-0.018325957
1757748433953,4.608838,-4.357447,8.858546,-0.33841935,-0.20891592,-0.018325957
1757748433955,4.608838,-4.357447,8.858546,-0.25289822,0.0036651916,-0.021991149
1757748433973,4.211401,-4.012682,8.291121,-0.25289822,0.0036651916,-0.021991149
1757748433974,4.211401,-4.012682,8.291121,-0.20769419,0.15271631,-0.015882496
1757748433994,3.8235402,-3.3614593,7.065289,-0.20769419,0.15271631,-0.015882496
1757748433996,3.8235402,-3.3614593,7.065289,0.039095376,0.20647246,0.008552114
1757748434013,3.8666358,-2.6743233,5.8442464,0.039095376,0.20647246,0.008552114
1757748434014,3.8666358,-2.6743233,5.8442464,0.09407325,0.10751228,0.03176499
1757748434033,3.821146,-2.5689783,4.7788267,0.09407325,0.10751228,0.03176499
1757748434035,3.821146,-2.5689783,4.7788267,-0.07452556,-0.052534413,0.029321533
1757748434053,3.4644098,-2.2457612,4.1683054,-0.07452556,-0.052534413,0.029321533
1757748434055,3.4644098,-2.2457612,4.1683054,-0.30298916,-0.23823744,0.0036651916
1757748434074,3.095703,-2.348712,3.8666358,-0.30298916,-0.23823744,0.0036651916
1757748434075,3.095703,-2.348712,3.8666358,-0.5204572,-0.43249258,-0.032986723
1757748434093,2.5258827,-2.0350714,3.775656,-0.5204572,-0.43249258,-0.032986723
1757748434094,2.5258827,-2.0350714,3.775656,-0.6267477,-0.63163465,-0.08674286
1757748434114,2.147599,-2.0805612,3.028665,-0.6267477,-0.63163465,-0.08674286
1757748434115,2.147599,-2.0805612,3.028665,-0.6914995,-0.84665924,-0.13927728
1757748434133,2.2290018,-1.7118542,1.7286136,-0.6914995,-0.84665924,-0.13927728
1757748434134,2.2290018,-1.7118542,1.7286136,-0.6939429,-1.0201449,-0.1685988
1757748434152,2.5378537,-1.3335704,1.3311762,-0.6939429,-1.0201449,-0.1685988
1757748434154,2.5378537,-1.3335704,1.3311762,-0.8038987,-1.0482447,-0.17715092
1757748434173,2.348712,-1.5945383,2.2840683,-0.8038987,-1.0482447,-0.17715092
1757748434175,2.348712,-1.5945383,2.2840683,-1.1264355,-0.8698721,-0.20525073
1757748434194,1.7764976,-1.4269443,3.394978,-1.1264355,-0.8698721,-0.20525073
1757748434195,1.7764976,-1.4269443,3.394978,-1.1569787,-0.7806858,-0.18936823
1757748434213,1.934515,-2.5139117,3.2824504,-1.1569787,-0.7806858,-0.18936823
1757748434214,1.934515,-2.5139117,3.2824504,-1.0567969,-0.7623598,-0.15882497
1757748434234,2.7030537,-2.4013844,3.715801,-1.0567969,-0.7623598,-0.15882497
1757748434235,2.7030537,-2.4013844,3.715801,-0.68783426,-0.7464773,-0.08674286
1757748434253,3.1124623,-2.5881321,3.8738184,-0.68783426,-0.7464773,-0.08674286
1757748434255,3.1124623,-2.5881321,3.8738184,-0.63163465,-0.66339964,-0.013439035
1757748434274,3.5218706,-3.8881836,3.4715924,-0.63163465,-0.66339964,-0.013439035
1757748434275,3.5218706,-3.8881836,3.4715924,-0.88697636,-0.59131753,-0.009773844
1757748434293,4.3023806,-4.3742065,3.7541082,-0.88697636,-0.59131753,-0.009773844
1757748434295,4.3023806,-4.3742065,3.7541082,-0.9224065,-0.54244834,-0.043982297
1757748434314,4.697424,-4.247314,3.8139634,-0.9224065,-0.54244834,-0.043982297
1757748434315,4.697424,-4.247314,3.8139634,-0.75136423,-0.45814893,-0.037873644
1757748434333,5.0158525,-4.201824,3.9456444,-0.75136423,-0.45814893,-0.037873644
1757748434335,5.0158525,-4.201824,3.9456444,-0.6426302,-0.4288274,0.017104227
1757748434354,5.497087,-4.72376,4.0677485,-0.6426302,-0.4288274,0.017104227
1757748434355,5.497087,-4.72376,4.0677485,-0.59742624,-0.43982297,0.064751714
1757748434373,6.1123967,-6.143522,4.177882,-0.59742624,-0.43982297,0.064751714
1757748434376,6.1123967,-6.143522,4.177882,-0.7452556,-0.4654793,0.057421334
1757748434394,7.079654,-7.704541,4.462792,-0.7452556,-0.4654793,0.057421334
1757748434395,7.079654,-7.704541,4.462792,-0.7684685,-0.50946164,0.02321288
1757748434414,7.48188,-8.0445175,4.8865657,-0.7684685,-0.50946164,0.02321288
1757748434415,7.48188,-8.0445175,4.8865657,-0.55955255,-0.46792278,-0.010995574
1757748434434,7.019799,-7.457938,5.0134583,-0.55955255,-0.46792278,-0.010995574
1757748434435,7.019799,-7.457938,5.0134583,-0.5448918,-0.46914452,-0.05375614
1757748434453,6.9264255,-7.1275387,4.924873,-0.5448918,-0.46914452,-0.05375614
1757748434454,6.9264255,-7.1275387,4.924873,-0.548557,-0.5558874,-0.08674286
1757748434474,6.9862804,-7.6135616,4.8745947,-0.548557,-0.5558874,-0.08674286
1757748434475,6.9862804,-7.6135616,4.8745947,-0.35796702,-0.6768387,-0.096516706
1757748434492,7.6375036,-7.419631,4.232949,-0.35796702,-0.6768387,-0.096516706
1757748434493,7.6375036,-7.419631,4.232949,-0.15760323,-0.7244862,-0.11484267
1757748434513,8.853758,-6.691794,3.964798,-0.15760323,-0.7244862,-0.11484267
1757748434515,8.853758,-6.691794,3.964798,-0.09773844,-0.69027776,-0.07452556
1757748434534,9.248801,-7.8912888,3.6463692,-0.09773844,-0.69027776,-0.07452556
1757748434535,9.248801,-7.8912888,3.6463692,-0.42149702,-0.73914695,-0.043982297
1757748434552,10.0748005,-9.052477,3.7469256,-0.42149702,-0.73914695,-0.043982297
1757748434553,10.0748005,-9.052477,3.7469256,-0.7244862,-0.82833326,-0.04886922
1757748434572,9.643845,-9.969456,3.9145198,-0.7244862,-0.82833326,-0.04886922
1757748434574,9.643845,-9.969456,3.9145198,-0.874759,-0.88208944,-0.089186326
1757748434594,10.103531,-10.46745,4.189853,-0.874759,-0.88208944,-0.089186326
1757748434596,10.103531,-10.46745,4.189853,-0.6719518,-0.9077458,-0.18448131
1757748434614,11.511322,-9.481039,4.247314,-0.6719518,-0.9077458,-0.18448131
1757748434615,11.511322,-9.481039,4.247314,-0.29810223,-0.79779,-0.21135938
1757748434634,12.70124,-9.883265,4.134786,-0.29810223,-0.79779,-0.21135938
1757748434636,12.70124,-9.883265,4.134786,-0.3200934,-0.66828656,-0.19914207
1757748434653,12.4785795,-10.608707,5.142745,-0.3200934,-0.66828656,-0.19914207
1757748434655,12.4785795,-10.608707,5.142745,-0.41050145,-0.5571091,-0.21868975
1757748434674,11.789049,-10.357317,5.6335564,-0.41050145,-0.5571091,-0.21868975
1757748434675,11.789049,-10.357317,5.6335564,-0.3200934,-0.5143485,-0.19547687
1757748434693,12.406754,-11.262324,4.390966,-0.3200934,-0.5143485,-0.19547687
1757748434695,12.406754,-11.262324,4.390966,0.09773844,-0.4288274,-0.18448131
1757748434713,12.959814,-11.075577,3.6128504,0.09773844,-0.4288274,-0.18448131
1757748434715,12.959814,-11.075577,3.6128504,0.38973203,-0.19181168,-0.17348573
1757748434733,12.471396,-10.053253,3.4141316,0.38973203,-0.19181168,-0.17348573
1757748434734,12.471396,-10.053253,3.4141316,0.41538838,0.056199603,-0.16493362
1757748434754,11.75553,-9.871294,3.7253778,0.41538838,0.056199603,-0.16493362
1757748434755,11.75553,-9.871294,3.7253778,0.14294247,0.20525073,-0.14905111
1757748434773,11.35091,-9.49301,3.7229836,0.14294247,0.20525073,-0.14905111
1757748434775,11.35091,-9.49301,3.7229836,-0.12217305,0.29810223,-0.089186326
1757748434794,11.518504,-10.237606,3.323152,-0.12217305,0.29810223,-0.089186326
1757748434796,11.518504,-10.237606,3.323152,-0.33108896,0.3115413,-0.013439035
1757748434814,12.1840925,-11.355699,3.2920272,-0.33108896,0.3115413,-0.013439035
1757748434817,12.1840925,-11.355699,3.2920272,-0.25289822,0.31031954,0.0036651916
1757748434833,11.310209,-10.666168,3.9384618,-0.25289822,0.31031954,0.0036651916
1757748434834,11.310209,-10.666168,3.9384618,0.12217305,0.40317106,-0.036651913
1757748434851,10.398018,-9.188946,3.9959226,0.12217305,0.40317106,-0.036651913
1757748434853,10.398018,-9.188946,3.9959226,0.38973203,0.33475417,-0.12217305
1757748434873,10.086772,-8.101978,3.6607344,0.38973203,0.33475417,-0.12217305
1757748434875,10.086772,-8.101978,3.6607344,0.42638394,0.29565877,-0.15882497
1757748434894,10.129868,-8.324639,3.110068,0.42638394,0.29565877,-0.15882497
1757748434895,10.129868,-8.324639,3.110068,0.22113322,0.29565877,-0.14172074
1757748434915,9.871294,-8.532935,2.815581,0.22113322,0.29565877,-0.14172074
1757748434916,9.871294,-8.532935,2.815581,0.02687807,0.36163223,-0.0842994
1757748434934,9.387665,-9.021352,3.1675289,0.02687807,0.36163223,-0.0842994
1757748434935,9.387665,-9.021352,3.1675289,-0.08307768,0.4202753,-0.007330383
1757748434953,9.26556,-9.617508,3.560178,-0.08307768,0.4202753,-0.007330383
1757748434955,9.26556,-9.617508,3.560178,-0.1441642,0.408058,0.007330383
1757748434970,9.416395,-9.471462,3.691859,-0.1441642,0.408058,0.007330383
1757748434970,9.416395,-9.471462,3.691859,0.0012217305,0.37507126,0.0036651916
1757748434990,9.993398,-8.848969,3.5075054,0.0012217305,0.37507126,0.0036651916
1757748434991,9.993398,-8.848969,3.5075054,0.11362094,0.36651915,-0.002443461
1757748435011,9.883265,-8.470686,3.1603463,0.11362094,0.36651915,-0.002443461
1757748435011,9.883265,-8.470686,3.1603463,0.10751228,0.42638394,0.013439035
1757748435033,9.361329,-8.025364,2.7102363,0.10751228,0.42638394,0.013439035
1757748435034,9.361329,-8.025364,2.7102363,0.07574729,0.45081854,0.032986723
1757748435052,9.129091,-7.615956,2.5474305,0.07574729,0.45081854,0.032986723
1757748435054,9.129091,-7.615956,2.5474305,0.10629055,0.47891834,0.052534413
1757748435073,8.813056,-7.2233067,2.7246015,0.10629055,0.47891834,0.052534413
1757748435074,8.813056,-7.2233067,2.7246015,0.16982053,0.52534413,0.06963864
1757748435094,8.281544,-6.9048777,3.181894,0.16982053,0.52534413,0.06963864
1757748435095,8.281544,-6.9048777,3.181894,0.13194689,0.5839872,0.096516706
1757748435115,7.807492,-6.835446,3.478775,0.13194689,0.5839872,0.096516706
1757748435116,7.807492,-6.835446,3.478775,0.062308256,0.5864306,0.10751228
1757748435134,7.3071036,-6.8522053,3.4859576,0.062308256,0.5864306,0.10751228
1757748435135,7.3071036,-6.8522053,3.4859576,0.07452556,0.5290093,0.10629055
1757748435154,7.026982,-6.277597,3.3614593,0.07452556,0.5290093,0.10629055
1757748435156,7.026982,-6.277597,3.3614593,0.13927728,0.4654793,0.1160644
1757748435174,6.519411,-5.815516,3.2824504,0.13927728,0.4654793,0.1160644
1757748435175,6.519411,-5.815516,3.2824504,0.13805555,0.3921755,0.1160644
1757748435194,5.60722,-5.109226,3.7110126,0.13805555,0.3921755,0.1160644
1757748435195,5.60722,-5.109226,3.7110126,0.17470746,0.24801129,0.111177474
1757748435213,4.8362875,-5.1140146,3.4572272,0.17470746,0.24801129,0.111177474
1757748435214,4.8362875,-5.1140146,3.4572272,0.23945917,0.089186326,0.07819075
1757748435237,4.283227,-4.5777135,3.0909145,0.23945917,0.089186326,0.07819075
1757748435239,4.283227,-4.5777135,3.0909145,0.47158796,-0.059864793,0.0036651916
1757748435254,3.8498764,-3.071761,2.1667526,0.47158796,-0.059864793,0.0036651916
1757748435255,3.8498764,-3.071761,2.1667526,0.6646214,-0.10751228,-0.061086524
1757748435277,3.2872388,-2.0973208,1.388637,0.6646214,-0.10751228,-0.061086524
1757748435279,3.2872388,-2.0973208,1.388637,0.57543504,-0.062308256,-0.0842994
1757748435294,2.5761611,-1.4413095,0.89782566,0.57543504,-0.062308256,-0.0842994
1757748435296,2.5761611,-1.4413095,0.89782566,0.31398472,0.03176499,-0.1001819
1757748435315,1.8387469,-1.292869,0.5770026,0.31398472,0.03176499,-0.1001819
1757748435318,1.8387469,-1.292869,0.5770026,0.17348573,0.1600467,-0.081855945
1757748435332,1.3311762,-1.1611878,0.16519992,0.17348573,0.1600467,-0.081855945
1757748435333,1.3311762,-1.1611878,0.16519992,0.22113322,0.26389378,-0.058643065
1757748435355,1.0319009,-1.067814,-0.04309563,0.22113322,0.26389378,-0.058643065
1757748435357,1.0319009,-1.067814,-0.04309563,0.4166101,0.3200934,-0.035430185
1757748435374,0.6440403,-0.7254431,-0.4429273,0.4166101,0.3200934,-0.035430185
1757748435376,0.6440403,-0.7254431,-0.4429273,0.6743952,0.44104472,-0.039095376
1757748435395,0.9576807,-0.007182605,-0.30406362,0.6743952,0.44104472,-0.039095376
1757748435396,0.9576807,-0.007182605,-0.30406362,0.6560693,0.51923543,-0.06719518
1757748435414,1.5873557,-0.30406362,0.107739076,0.6560693,0.51923543,-0.06719518
1757748435417,1.5873557,-0.30406362,0.107739076,0.35063666,0.6133087,-0.05375614
1757748435435,2.7485435,-2.3654714,1.3215994,0.35063666,0.6133087,-0.05375614
1757748435436,2.7485435,-2.3654714,1.3215994,0.05497787,0.7110472,-0.039095376
1757748435454,3.5577838,-3.8522706,2.9592333,0.05497787,0.7110472,-0.039095376
1757748435455,3.5577838,-3.8522706,2.9592333,0.20158553,0.8258898,-0.004886922
1757748435474,4.88896,-4.1419687,4.321534,0.20158553,0.8258898,-0.004886922
1757748435476,4.88896,-4.1419687,4.321534,0.548557,0.8552113,0.042760566
1757748435494,6.4020953,-5.279215,6.3087215,0.548557,0.8552113,0.042760566
1757748435495,6.4020953,-5.279215,6.3087215,0.57543504,0.65240407,0.040317107
1757748435515,6.8689647,-6.0166287,7.7811556,0.57543504,0.65240407,0.040317107
1757748435516,6.8689647,-6.0166287,7.7811556,0.6230826,0.35796702,-0.012217305
1757748435534,8.010999,-6.5361705,8.221688,0.6230826,0.35796702,-0.012217305
1757748435535,8.010999,-6.5361705,8.221688,-0.014660766,-0.43127087,-0.047647487
1757748435555,8.413225,-7.716512,7.1155677,-0.014660766,-0.43127087,-0.047647487
1757748435556,8.413225,-7.716512,7.1155677,-0.6817256,-0.8735373,-0.062308256
1757748435574,7.5465236,-7.8984714,6.2991447,-0.6817256,-0.8735373,-0.062308256
1757748435575,7.5465236,-7.8984714,6.2991447,-0.90285885,-0.86132,-0.13683382
1757748435595,6.5385647,-6.861782,5.6215854,-0.90285885,-0.86132,-0.13683382
1757748435596,6.5385647,-6.861782,5.6215854,-0.6426302,-0.5742133,-0.2284636
1757748435615,5.475539,-5.046977,5.109226,-0.6426302,-0.5742133,-0.2284636
1757748435616,5.475539,-5.046977,5.109226,-0.111177474,-0.19303341,-0.25167647
1757748435635,4.6232033,-3.3087866,4.8267107,-0.111177474,-0.19303341,-0.25167647
1757748435637,4.6232033,-3.3087866,4.8267107,0.36774087,0.080634214,-0.18325958
1757748435654,4.0294414,-2.327164,4.4580035,0.36774087,0.080634214,-0.18325958
1757748435656,4.0294414,-2.327164,4.4580035,0.6731735,0.19425514,-0.06963864
1757748435675,4.309563,-1.5682021,4.0892963,0.6731735,0.19425514,-0.06963864
1757748435676,4.309563,-1.5682021,4.0892963,0.6389651,0.112399206,0.05375614
1757748435694,4.426879,-1.7286136,3.5745432,0.6389651,0.112399206,0.05375614
1757748435696,4.426879,-1.7286136,3.5745432,0.17104226,-0.09285152,0.17592919
1757748435714,4.522647,-2.9951463,3.4811692,0.17104226,-0.09285152,0.17592919
1757748435715,4.522647,-2.9951463,3.4811692,-0.61086524,-0.5729916,0.204029
1757748435734,4.2401314,-3.9695864,3.5673606,-0.61086524,-0.5729916,0.204029
1757748435736,4.2401314,-3.9695864,3.5673606,-0.79290307,-0.8393288,0.13927728
1757748435755,4.1276035,-3.98874,3.4691982,-0.79290307,-0.8393288,0.13927728
1757748435757,4.1276035,-3.98874,3.4691982,-0.8002335,-0.9957104,0.0842994
1757748435774,4.369418,-3.928885,3.0310593,-0.8002335,-0.9957104,0.0842994
1757748435776,4.369418,-3.928885,3.0310593,-0.7464773,-0.9822713,0.039095376
1757748435795,4.268862,-3.442862,2.566584,-0.7464773,-0.9822713,0.039095376
1757748435796,4.268862,-3.442862,2.566584,-0.67073005,-0.816116,-0.002443461
1757748435814,3.6846764,-3.3303347,2.135628,-0.67073005,-0.816116,-0.002443461
1757748435817,3.6846764,-3.3303347,2.135628,-0.47525316,-0.61453044,-0.04520403
1757748435834,3.241749,-2.7389667,1.8195933,-0.47525316,-0.61453044,-0.04520403
1757748435835,3.241749,-2.7389667,1.8195933,-0.118507855,-0.4569272,-0.064751714
1757748435852,3.323152,-1.7884687,1.7238252,-0.118507855,-0.4569272,-0.064751714
1757748435853,3.323152,-1.7884687,1.7238252,-0.05375614,-0.31031954,-0.030543262
1757748435874,4.3263226,-2.0494366,1.4221559,-0.05375614,-0.31031954,-0.030543262
1757748435876,4.3263226,-2.0494366,1.4221559,-0.5681047,-0.16737708,0.0
1757748435894,4.3167458,-3.2393548,1.376666,-0.5681047,-0.16737708,0.0
1757748435896,4.3167458,-3.2393548,1.376666,-0.70371675,-0.13439035,0.05131268
1757748435915,4.2305546,-3.6750996,1.5825673,-0.70371675,-0.13439035,0.05131268
1757748435917,4.2305546,-3.6750996,1.5825673,-0.44715336,-0.14782938,0.1001819
1757748435935,4.297592,-3.6391866,2.1308396,-0.44715336,-0.14782938,0.1001819
1757748435936,4.297592,-3.6391866,2.1308396,-0.17959438,-0.24312437,0.103847094
1757748435955,4.3885717,-3.8115692,2.4827871,-0.17959438,-0.24312437,0.103847094
1757748435956,4.3885717,-3.8115692,2.4827871,-0.08552113,-0.3286455,0.095294975
1757748435974,4.474763,-3.7565024,2.1978772,-0.08552113,-0.3286455,0.095294975
1757748435976,4.474763,-3.7565024,2.1978772,-0.09285152,-0.35430184,0.06719518
1757748435995,4.9919105,-3.7948096,1.8602947,-0.09285152,-0.35430184,0.06719518
1757748435996,4.9919105,-3.7948096,1.8602947,-0.21380283,-0.40194935,0.0720821
1757748436014,5.861006,-4.759673,1.7501614,-0.21380283,-0.40194935,0.0720821
1757748436016,5.861006,-4.759673,1.7501614,-0.33108896,-0.40683624,0.10140363
1757748436035,6.459556,-5.4444146,2.006341,-0.33108896,-0.40683624,0.10140363
1757748436036,6.459556,-5.4444146,2.006341,-0.2443461,-0.35063666,0.1160644
1757748436055,6.179435,-5.068525,3.550601,-0.2443461,-0.35063666,0.1160644
1757748436056,6.179435,-5.068525,3.550601,0.021991149,-0.26511553,0.10995574
1757748436075,6.409278,-4.915296,3.8043866,0.021991149,-0.26511553,0.10995574
1757748436076,6.409278,-4.915296,3.8043866,-0.23823744,-0.33964106,0.07574729
1757748436095,7.120356,-5.604826,3.442862,-0.23823744,-0.33964106,0.07574729
1757748436096,7.120356,-5.604826,3.442862,-0.64751714,-0.47647488,0.080634214
1757748436117,8.080431,-7.1371155,2.5929205,-0.64751714,-0.47647488,0.080634214
1757748436118,8.080431,-7.1371155,2.5929205,-0.7965683,-0.57787853,0.12339478
1757748436134,8.674192,-8.78672,2.4349031,-0.7965683,-0.57787853,0.12339478
1757748436136,8.674192,-8.78672,2.4349031,-0.60231316,-0.6450737,0.14905111
1757748436155,8.9040365,-9.114726,2.5809495,-0.60231316,-0.6450737,0.14905111
1757748436157,8.9040365,-9.114726,2.5809495,-0.23823744,-0.6291912,0.08307768
1757748436174,9.41879,-7.819463,3.0382419,-0.23823744,-0.6291912,0.08307768
1757748436176,9.41879,-7.819463,3.0382419,-0.04642576,-0.5839872,0.008552114
1757748436195,9.730036,-7.5584946,3.2225955,-0.04642576,-0.5839872,0.008552114
1757748436196,9.730036,-7.5584946,3.2225955,-0.2932153,-0.53023106,-0.02687807
1757748436215,10.577583,-9.232041,2.2984335,-0.2932153,-0.53023106,-0.02687807
1757748436216,10.577583,-9.232041,2.2984335,-0.68416905,-0.49113566,0.09407325
1757748436234,10.903194,-10.970232,1.8674773,-0.68416905,-0.49113566,0.09407325
1757748436235,10.903194,-10.970232,1.8674773,-0.5338962,-0.47036624,0.095294975
1757748436255,11.382035,-11.6908865,2.3630772,-0.5338962,-0.47036624,0.095294975
1757748436256,11.382035,-11.6908865,2.3630772,-0.032986723,-0.39950588,0.008552114
1757748436274,11.712435,-10.903194,2.9735985,-0.032986723,-0.39950588,0.008552114
1757748436276,11.712435,-10.903194,2.9735985,0.30909783,-0.34330627,-0.07696902
1757748436295,11.68131,-9.64145,3.2632968,0.30909783,-0.34330627,-0.07696902
1757748436296,11.68131,-9.64145,3.2632968,0.2443461,-0.2687807,-0.11728613
1757748436315,12.624625,-9.643845,2.707842,0.2443461,-0.2687807,-0.11728613
1757748436318,12.624625,-9.643845,2.707842,-0.18081611,-0.30909783,-0.112399206
1757748436334,12.876017,-10.342952,2.2218192,-0.18081611,-0.30909783,-0.112399206
1757748436335,12.876017,-10.342952,2.2218192,-0.4251622,-0.30787608,-0.0720821
1757748436355,12.538434,-11.518504,1.8339585,-0.4251622,-0.30787608,-0.0720821
1757748436356,12.538434,-11.518504,1.8339585,-0.37995818,-0.25167647,-0.1001819
1757748436375,12.140997,-11.314998,1.8459295,-0.37995818,-0.25167647,-0.1001819
1757748436376,12.140997,-11.314998,1.8459295,-0.081855945,-0.21135938,-0.13561209
1757748436395,12.694057,-10.409989,2.0207062,-0.081855945,-0.21135938,-0.13561209
1757748436396,12.694057,-10.409989,2.0207062,0.032986723,-0.111177474,-0.172264
1757748436415,12.777855,-9.730036,2.135628,0.032986723,-0.111177474,-0.172264
1757748436416,12.777855,-9.730036,2.135628,0.019547688,-0.029321533,-0.18692477
1757748436435,12.521675,-9.093178,1.8195933,0.019547688,-0.029321533,-0.18692477
1757748436436,12.521675,-9.093178,1.8195933,-0.11362094,0.059864793,-0.13927728
1757748436454,11.812991,-9.153033,1.5945383,-0.11362094,0.059864793,-0.13927728
1757748436456,11.812991,-9.153033,1.5945383,-0.35796702,0.15027285,-0.07696902
1757748436475,11.171345,-10.429143,1.4317327,-0.35796702,0.15027285,-0.07696902
1757748436476,11.171345,-10.429143,1.4317327,-0.50579643,0.17837265,-0.02321288
1757748436494,11.547235,-11.839328,1.2569559,-0.50579643,0.17837265,-0.02321288
1757748436496,11.547235,-11.839328,1.2569559,-0.2724459,0.12583824,-0.05131268
1757748436515,10.845734,-11.279084,1.6232687,-0.2724459,0.12583824,-0.05131268
1757748436516,10.845734,-11.279084,1.6232687,0.22602014,0.15149458,-0.15515977
1757748436534,10.460267,-9.55047,2.315193,0.22602014,0.15149458,-0.15515977
1757748436536,10.460267,-9.55047,2.315193,0.59742624,0.17959438,-0.22724187
1757748436555,10.235212,-7.651869,2.0925324,0.59742624,0.17959438,-0.22724187
1757748436556,10.235212,-7.651869,2.0925324,0.42149702,0.21624629,-0.2443461
1757748436575,10.213664,-7.019799,1.6519991,0.42149702,0.21624629,-0.2443461
1757748436576,10.213664,-7.019799,1.6519991,-0.02687807,0.204029,-0.16371189
1757748436595,9.919178,-7.9224133,1.6687586,-0.02687807,0.204029,-0.16371189
1757748436596,9.919178,-7.9224133,1.6687586,-0.312763,0.20891592,-0.058643065
1757748436615,9.840169,-8.542512,1.4053963,-0.312763,0.20891592,-0.058643065
1757748436616,9.840169,-8.542512,1.4053963,-0.42271876,0.23335053,0.015882496
1757748436634,9.679757,-8.755595,1.2473791,-0.42271876,0.23335053,0.015882496
1757748436636,9.679757,-8.755595,1.2473791,-0.48624873,0.25778514,0.035430185
1757748436653,9.552865,-9.066842,1.1468226,-0.48624873,0.25778514,0.035430185
1757748436654,9.552865,-9.066842,1.1468226,-0.37873647,0.27488935,0.036651913
1757748436675,9.7324295,-8.506598,1.2808979,-0.37873647,0.27488935,0.036651913
1757748436677,9.7324295,-8.506598,1.2808979,-0.14049901,0.28710666,0.028099801
1757748436696,9.655815,-8.00621,1.42455,-0.14049901,0.28710666,0.028099801
1757748436698,9.655815,-8.00621,1.42455,-0.052534413,0.30909783,0.02443461
1757748436715,9.380483,-7.4986396,1.472434,-0.052534413,0.30909783,0.02443461
1757748436717,9.380483,-7.4986396,1.472434,-0.09407325,0.31031954,0.02076942
1757748436735,8.887277,-7.4363904,1.2401965,-0.09407325,0.31031954,0.02076942
1757748436737,8.887277,-7.4363904,1.2401965,-0.057421334,0.27855456,0.059864793
1757748436755,8.59279,-7.7069354,1.4460979,-0.057421334,0.27855456,0.059864793
1757748436757,8.59279,-7.7069354,1.4460979,0.14049901,0.22602014,0.065973446
1757748436774,8.415619,-7.489063,1.8818425,0.14049901,0.22602014,0.065973446
1757748436776,8.415619,-7.489063,1.8818425,0.5681047,0.18203785,0.07452556
1757748436795,8.056489,-7.120356,2.1284454,0.5681047,0.18203785,0.07452556
1757748436796,8.056489,-7.120356,2.1284454,0.7806858,0.10995574,0.030543262
1757748436816,7.386112,-6.229713,2.542642,0.7806858,0.10995574,0.030543262
1757748436817,7.386112,-6.229713,2.542642,0.88331115,0.014660766,-0.035430185
1757748436833,6.26802,-4.498705,2.5833437,0.88331115,0.014660766,-0.035430185
1757748436835,6.26802,-4.498705,2.5833437,0.75136423,-0.07696902,-0.057421334
1757748436853,5.449203,-5.145139,1.400608,0.75136423,-0.07696902,-0.057421334
1757748436855,5.449203,-5.145139,1.400608,0.3359759,-0.27366763,0.05375614
1757748436875,5.0374002,-5.801151,1.3479356,0.3359759,-0.27366763,0.05375614
1757748436876,5.0374002,-5.801151,1.3479356,0.10873401,-0.44715336,0.12950343
1757748436895,4.5154643,-6.555324,1.1300632,0.10873401,-0.44715336,0.12950343
1757748436896,4.5154643,-6.555324,1.1300632,0.36896262,-0.50579643,0.18325958
1757748436915,3.3614593,-4.369418,1.6903064,0.36896262,-0.50579643,0.18325958
1757748436916,3.3614593,-4.369418,1.6903064,1.1313224,-0.37995818,0.118507855
1757748436935,3.0933087,-2.8634653,1.3120226,1.1313224,-0.37995818,0.118507855
1757748436936,3.0933087,-2.8634653,1.3120226,1.1093313,-0.3408628,0.12583824
1757748436955,3.1172507,-2.4899697,0.6703765,1.1093313,-0.3408628,0.12583824
1757748436956,3.1172507,-2.4899697,0.6703765,1.0042624,-0.3652974,0.15271631
1757748436975,2.6719291,-1.8459295,0.9768343,1.0042624,-0.3652974,0.15271631
1757748436977,2.6719291,-1.8459295,0.9768343,1.2791518,-0.25900686,0.15027285
1757748436994,1.9393034,-0.7637503,0.23942018,1.2791518,-0.25900686,0.15027285
1757748436996,1.9393034,-0.7637503,0.23942018,1.2217305,0.073303826,0.18203785
1757748437014,2.8179753,-1.0462662,0.62249243,1.2217305,0.073303826,0.18203785
1757748437015,2.8179753,-1.0462662,0.62249243,0.70005155,0.15149458,0.028099801
1757748437035,1.6304513,-0.38307226,0.8355764,0.70005155,0.15149458,0.028099801
1757748437036,1.6304513,-0.38307226,0.8355764,0.095294975,0.4361578,-0.19181168
1757748437055,2.6168625,-2.255338,0.16519992,0.095294975,0.4361578,-0.19181168
1757748437056,2.6168625,-2.255338,0.16519992,-0.44593164,0.50823987,-0.3200934
1757748437074,4.1419687,-2.645593,0.30645782,-0.44593164,0.50823987,-0.3200934
1757748437076,4.1419687,-2.645593,0.30645782,-0.15882497,0.8173377,-0.3005457
1757748437095,5.1547165,-2.3918076,1.0989386,-0.15882497,0.8173377,-0.3005457
1757748437096,5.1547165,-2.3918076,1.0989386,0.42149702,0.8698721,-0.3933972
1757748437116,5.0900726,-2.1859062,1.7022774,0.42149702,0.8698721,-0.3933972
1757748437117,5.0900726,-2.1859062,1.7022774,0.46670106,1.047023,-0.40194935
1757748437135,6.859388,-3.7972038,2.3463178,0.46670106,1.047023,-0.40194935
1757748437136,6.859388,-3.7972038,2.3463178,0.12461651,0.9126327,-0.2602286
1757748437154,8.662222,-4.5801077,2.633622,0.12461651,0.9126327,-0.2602286
1757748437156,8.662222,-4.5801077,2.633622,0.052534413,0.7648033,-0.13194689
1757748437175,8.6574335,-3.4811692,3.8043866,0.052534413,0.7648033,-0.13194689
1757748437176,8.6574335,-3.4811692,3.8043866,-0.018325957,0.5876524,0.03176499
1757748437195,8.63828,-4.4244847,4.2042184,-0.018325957,0.5876524,0.03176499
1757748437196,8.63828,-4.4244847,4.2042184,-0.7330383,0.3042109,0.22235495
1757748437215,8.312668,-6.9599442,4.3119574,-0.7330383,0.3042109,0.22235495
1757748437216,8.312668,-6.9599442,4.3119574,-1.1667526,0.14660765,0.2687807
1757748437235,7.386112,-7.73806,4.6232033,-1.1667526,0.14660765,0.2687807
1757748437236,7.386112,-7.73806,4.6232033,-0.9810496,0.1441642,0.25900686
1757748437255,6.6415157,-6.3350577,4.88896,-0.9810496,0.1441642,0.25900686
1757748437257,6.6415157,-6.3350577,4.88896,-0.32986724,0.3042109,0.07819075
1757748437275,6.327875,-4.7309427,4.5777135,-0.32986724,0.3042109,0.07819075
1757748437276,6.327875,-4.7309427,4.5777135,-0.1685988,0.45204028,-0.013439035
1757748437295,6.1985884,-3.751714,4.663905,-0.1685988,0.45204028,-0.013439035
1757748437296,6.1985884,-3.751714,4.663905,-0.14538592,0.50946164,-0.0720821
1757748437316,6.4858923,-3.1866825,4.5298295,-0.14538592,0.50946164,-0.0720821
1757748437318,6.4858923,-3.1866825,4.5298295,-0.13316862,0.45937067,-0.0842994
1757748437334,6.6893997,-3.0430303,3.9624038,-0.13316862,0.45937067,-0.0842994
1757748437335,6.6893997,-3.0430303,3.9624038,-0.26267207,0.3213151,-0.061086524
1757748437355,6.4619503,-3.2585084,3.0190883,-0.26267207,0.3213151,-0.061086524
1757748437356,6.4619503,-3.2585084,3.0190883,-0.49357912,0.18692477,-0.04642576
1757748437374,5.9160724,-3.4715924,2.2936451,-0.49357912,0.18692477,-0.04642576
1757748437376,5.9160724,-3.4715924,2.2936451,-0.7440339,0.12217305,-0.010995574
1757748437395,5.3462524,-3.6966474,1.8962077,-0.7440339,0.12217305,-0.010995574
1757748437396,5.3462524,-3.6966474,1.8962077,-0.90285885,0.10995574,0.013439035
1757748437415,3.8857894,-3.7924154,1.7357962,-0.90285885,0.10995574,0.013439035
1757748437416,3.8857894,-3.7924154,1.7357962,-0.9297369,0.14172074,0.0
1757748437435,2.908955,-3.347094,1.8555063,-0.9297369,0.14172074,0.0
1757748437436,2.908955,-3.347094,1.8555063,-0.9297369,0.14782938,-0.036651913
1757748437455,2.7389667,-3.2465374,2.1164744,-0.9297369,0.14782938,-0.036651913
1757748437456,2.7389667,-3.2465374,2.1164744,-0.91874135,0.16493362,-0.10262536
1757748437475,2.9999347,-3.6128504,2.3175871,-0.91874135,0.16493362,-0.10262536
1757748437476,2.9999347,-3.6128504,2.3175871,-0.7770206,0.204029,-0.14782938
1757748437495,3.6942532,-3.502717,2.3008277,-0.7770206,0.204029,-0.14782938
1757748437497,3.6942532,-3.502717,2.3008277,-0.4007276,0.17348573,-0.15027285
1757748437516,4.0294414,-2.9041667,2.1619642,-0.4007276,0.17348573,-0.15027285
1757748437519,4.0294414,-2.9041667,2.1619642,-0.047647487,0.08674286,-0.12217305
1757748437535,3.8977604,-2.147599,2.2002714,-0.047647487,0.08674286,-0.12217305
1757748437536,3.8977604,-2.147599,2.2002714,-0.073303826,-0.029321533,-0.065973446
1757748437555,3.6296098,-2.966416,2.1212628,-0.073303826,-0.029321533,-0.065973446
1757748437556,3.6296098,-2.966416,2.1212628,-0.3408628,-0.112399206,-0.029321533
1757748437575,3.4763808,-3.7780502,2.3535004,-0.3408628,-0.112399206,-0.029321533
1757748437576,3.4763808,-3.7780502,2.3535004,-0.46670106,-0.15271631,-0.009773844
1757748437595,4.429273,-4.2544966,2.554613,-0.46670106,-0.15271631,-0.009773844
1757748437596,4.429273,-4.2544966,2.554613,-0.34330627,-0.21624629,-0.028099801
1757748437615,4.927267,-3.9743748,2.171541,-0.34330627,-0.21624629,-0.028099801
1757748437617,4.927267,-3.9743748,2.171541,-0.32375857,-0.22968534,0.004886922
1757748437635,5.327099,-5.2026005,1.8650831,-0.32375857,-0.22968534,0.004886922
1757748437636,5.327099,-5.2026005,1.8650831,-0.4007276,-0.22235495,-0.029321533
1757748437654,5.8466406,-6.215348,2.4708161,-0.4007276,-0.22235495,-0.029321533
1757748437656,5.8466406,-6.215348,2.4708161,-0.064751714,-0.10873401,-0.105068825
1757748437675,6.5098343,-5.269638,3.289633,-0.064751714,-0.10873401,-0.105068825
1757748437676,6.5098343,-5.269638,3.289633,0.3286455,0.032986723,-0.14049901
1757748437696,7.608773,-4.7022123,3.608062,0.3286455,0.032986723,-0.14049901
1757748437697,7.608773,-4.7022123,3.608062,0.058643065,-0.039095376,-0.15882497
1757748437716,8.674192,-5.7604494,2.5378537,0.058643065,-0.039095376,-0.15882497
1757748437717,8.674192,-5.7604494,2.5378537,-0.46792278,-0.204029,-0.18081611
1757748437735,8.743625,-7.091625,1.5801731,-0.46792278,-0.204029,-0.18081611
1757748437736,8.743625,-7.091625,1.5801731,-0.6743952,-0.27488935,-0.18203785
1757748437756,7.275979,-7.8984714,1.7717092,-0.6743952,-0.27488935,-0.18203785
1757748437757,7.275979,-7.8984714,1.7717092,-0.49113566,-0.13072516,-0.22724187
1757748437775,6.4523735,-6.7372837,3.0190883,-0.49113566,-0.13072516,-0.22724187
1757748437776,6.4523735,-6.7372837,3.0190883,0.13194689,0.06352998,-0.31642818
1757748437796,8.030152,-5.0613422,3.3375173,0.13194689,0.06352998,-0.31642818
1757748437797,8.030152,-5.0613422,3.3375173,0.312763,0.07819075,-0.25045475
1757748437815,9.196129,-5.4922986,3.1603463,0.312763,0.07819075,-0.25045475
1757748437817,9.196129,-5.4922986,3.1603463,-0.16615535,0.02565634,-0.056199603
1757748437836,8.602366,-7.61835,2.3175871,-0.16615535,0.02565634,-0.056199603
1757748437837,8.602366,-7.61835,2.3175871,-0.7806858,-0.010995574,0.10873401
1757748437854,8.058883,-9.502586,2.456451,-0.7806858,-0.010995574,0.10873401
1757748437855,8.058883,-9.502586,2.456451,-0.8393288,-0.035430185,0.15027285
1757748437875,7.8529816,-10.656591,2.7964275,-0.8393288,-0.035430185,0.15027285
1757748437877,7.8529816,-10.656591,2.7964275,-0.312763,-0.061086524,0.07452556
1757748437895,8.846576,-10.093954,3.122039,-0.312763,-0.061086524,0.07452556
1757748437896,8.846576,-10.093954,3.122039,0.30298916,-0.13683382,-0.052534413
1757748437916,10.919954,-8.846576,2.8754363,0.30298916,-0.13683382,-0.052534413
1757748437918,10.919954,-8.846576,2.8754363,0.70005155,-0.24801129,-0.111177474
1757748437935,11.803414,-8.643068,2.2409728,0.70005155,-0.24801129,-0.111177474
1757748437936,11.803414,-8.643068,2.2409728,0.4886922,-0.30176744,-0.09407325
1757748437956,11.374852,-9.062054,2.3104045,0.4886922,-0.30176744,-0.09407325
1757748437958,11.374852,-9.062054,2.3104045,0.047647487,-0.23945917,-0.04153884
1757748437975,11.57836,-10.565612,2.741361,0.047647487,-0.23945917,-0.04153884
1757748437976,11.57836,-10.565612,2.741361,-0.16126843,-0.1685988,-0.012217305
1757748437996,12.10269,-11.286267,3.1172507,-0.16126843,-0.1685988,-0.012217305
1757748437997,12.10269,-11.286267,3.1172507,0.062308256,-0.1160644,-0.04520403
1757748438016,12.591106,-10.407595,3.2752678,0.062308256,-0.1160644,-0.04520403
1757748438017,12.591106,-10.407595,3.2752678,0.16126843,-0.14660765,-0.02687807
1757748438036,13.716381,-10.110714,3.0023289,0.16126843,-0.14660765,-0.02687807
1757748438038,13.716381,-10.110714,3.0023289,-0.29443705,-0.19914207,0.02565634
1757748438055,13.850457,-10.903194,2.9161377,-0.29443705,-0.19914207,0.02565634
1757748438056,13.850457,-10.903194,2.9161377,-0.7684685,-0.15515977,0.028099801
1757748438076,13.448231,-10.939108,3.1531637,-0.7684685,-0.15515977,0.028099801
1757748438078,13.448231,-10.939108,3.1531637,-0.6291912,-0.065973446,0.0061086523
1757748438095,12.600683,-10.850522,3.2704794,-0.6291912,-0.065973446,0.0061086523
1757748438096,12.600683,-10.850522,3.2704794,-0.27122417,-0.0036651916,-0.052534413
1757748438116,11.86327,-10.469844,3.0550013,-0.27122417,-0.0036651916,-0.052534413
1757748438118,11.86327,-10.469844,3.0550013,0.09285152,0.09162979,-0.19058995
1757748438135,11.968615,-9.514558,3.0813377,0.09285152,0.09162979,-0.19058995
1757748438136,11.968615,-9.514558,3.0813377,0.21502456,0.18203785,-0.2761111
1757748438156,11.774684,-9.208099,3.2489316,0.21502456,0.18203785,-0.2761111
1757748438157,11.774684,-9.208099,3.2489316,0.24556783,0.20891592,-0.33475417
1757748438175,11.207258,-9.334992,2.8993783,0.24556783,0.20891592,-0.33475417
1757748438177,11.207258,-9.334992,2.8993783,0.3921755,0.22235495,-0.3652974
1757748438196,10.714052,-8.50181,2.6886885,0.3921755,0.22235495,-0.3652974
1757748438198,10.714052,-8.50181,2.6886885,0.61575216,0.2846632,-0.3555236
1757748438216,10.773908,-8.3150625,2.504335,0.61575216,0.2846632,-0.3555236
1757748438217,10.773908,-8.3150625,2.504335,0.5766568,0.3359759,-0.31764993
1757748438236,10.572795,-8.738836,2.1547816,0.5766568,0.3359759,-0.31764993
1757748438238,10.572795,-8.738836,2.1547816,0.39461896,0.3726278,-0.3042109
1757748438255,10.625467,-9.239224,1.7764976,0.39461896,0.3726278,-0.3042109
1757748438257,10.625467,-9.239224,1.7764976,0.28955013,0.36896262,-0.29077184
1757748438276,9.67018,-8.760384,1.4197617,0.28955013,0.36896262,-0.29077184
1757748438277,9.67018,-8.760384,1.4197617,0.40194935,0.32498032,-0.2687807
1757748438295,9.200917,-8.121132,1.5586253,0.40194935,0.32498032,-0.2687807
1757748438297,9.200917,-8.121132,1.5586253,0.376293,0.2919936,-0.25289822
1757748438317,9.308656,-7.3549876,1.6879122,0.376293,0.2919936,-0.25289822
1757748438318,9.308656,-7.3549876,1.6879122,0.24312437,0.28955013,-0.17592919
1757748438335,9.148245,-7.2472486,1.946486,0.24312437,0.28955013,-0.17592919
1757748438337,9.148245,-7.2472486,1.946486,0.1282817,0.30909783,-0.0842994
1757748438356,8.844181,-6.8905125,2.066196,0.1282817,0.30909783,-0.0842994
1757748438358,8.844181,-6.8905125,2.066196,0.05497787,0.33841935,0.015882496
1757748438376,8.252813,-6.3901243,2.4971523,0.05497787,0.33841935,0.015882496
1757748438377,8.252813,-6.3901243,2.4971523,0.06352998,0.34208453,0.103847094
1757748438396,7.6949644,-5.93762,2.789245,0.06352998,0.34208453,0.103847094
1757748438397,7.6949644,-5.93762,2.789245,0.05375614,0.31398472,0.19181168
1757748438416,7.3669586,-5.0374002,2.930503,0.05375614,0.31398472,0.19181168
1757748438417,7.3669586,-5.0374002,2.930503,-0.0061086523,0.25778514,0.24190263
1757748438436,6.64391,-5.145139,2.6072857,-0.0061086523,0.25778514,0.24190263
1757748438438,6.64391,-5.145139,2.6072857,-0.35185838,0.17959438,0.23457226
1757748438456,6.555324,-6.4763155,1.8507179,-0.35185838,0.17959438,0.23457226
1757748438457,6.555324,-6.4763155,1.8507179,-0.2773328,-0.07696902,0.09162979
1757748438476,7.16824,-4.486734,1.6424223,-0.2773328,-0.07696902,0.09162979
1757748438478,7.16824,-4.486734,1.6424223,0.2932153,-0.09407325,0.09162979
1757748438496,6.703765,-3.4596214,1.4556746,0.2932153,-0.09407325,0.09162979
1757748438497,6.703765,-3.4596214,1.4556746,0.32498032,-0.07574729,0.06963864
1757748438517,6.05733,-2.2505496,1.5394717,0.32498032,-0.07574729,0.06963864
1757748438518,6.05733,-2.2505496,1.5394717,0.2919936,0.036651913,0.07941248
1757748438535,4.8243165,-1.4915876,2.066196,0.2919936,0.036651913,0.07941248
1757748438536,4.8243165,-1.4915876,2.066196,0.2724459,0.15271631,0.16737708
1757748438555,3.8043866,-1.5969325,2.4708161,0.2724459,0.15271631,0.16737708
1757748438557,3.8043866,-1.5969325,2.4708161,0.037873644,0.1881465,0.24190263
1757748438576,3.1435869,-1.460463,3.016694,0.037873644,0.1881465,0.24190263
1757748438577,3.1435869,-1.460463,3.016694,-0.18570304,0.16982053,0.2565634
1757748438596,2.1284454,-1.2090719,3.1675289,-0.18570304,0.16982053,0.2565634
1757748438598,2.1284454,-1.2090719,3.1675289,-0.5326745,0.12950343,0.27122417
1757748438616,1.721431,-2.1045034,2.327164,-0.5326745,0.12950343,0.27122417
1757748438618,1.721431,-2.1045034,2.327164,-0.9260717,0.065973446,0.16737708
1757748438636,1.7788919,-3.3207579,1.5275006,-0.9260717,0.065973446,0.16737708
1757748438638,1.7788919,-3.3207579,1.5275006,-0.6291912,0.07819075,0.037873644
1757748438655,1.5346833,-2.8203697,1.5897499,-0.6291912,0.07819075,0.037873644
1757748438657,1.5346833,-2.8203697,1.5897499,0.047647487,0.16982053,-0.06719518
1757748438677,1.7477672,-2.066196,1.6519991,0.047647487,0.16982053,-0.06719518
1757748438678,1.7477672,-2.066196,1.6519991,0.4202753,0.28710666,-0.13316862
1757748438696,2.0614076,-1.7669208,1.520318,0.4202753,0.28710666,-0.13316862
1757748438697,2.0614076,-1.7669208,1.520318,0.5852089,0.4251622,-0.13805555
1757748438717,2.5785553,-1.3551182,1.3790601,0.5852089,0.4251622,-0.13805555
1757748438718,2.5785553,-1.3551182,1.3790601,0.71593404,0.56688297,-0.09407325
1757748438735,4.213795,-1.7525556,1.6472107,0.71593404,0.56688297,-0.09407325
1757748438737,4.213795,-1.7525556,1.6472107,0.69027776,0.6169739,0.019547688
1757748438756,6.64391,-2.2218192,2.5306711,0.69027776,0.6169739,0.019547688
1757748438757,6.64391,-2.2218192,2.5306711,0.5216789,0.59620446,0.21624629
1757748438775,7.5082164,-3.7253778,3.6511576,0.5216789,0.59620446,0.21624629
1757748438776,7.5082164,-3.7253778,3.6511576,0.21624629,0.48624873,0.42394048
1757748438796,7.656657,-7.357382,4.1946416,0.21624629,0.48624873,0.42394048
1757748438797,7.656657,-7.357382,4.1946416,-0.30543262,0.15515977,0.4605924
1757748438816,8.971074,-7.7189064,4.249708,-0.30543262,0.15515977,0.4605924
1757748438818,8.971074,-7.7189064,4.249708,-0.32986724,-0.04520403,0.32375857
1757748438836,9.533711,-7.773973,3.9983168,-0.32986724,-0.04520403,0.32375857
1757748438837,9.533711,-7.773973,3.9983168,-0.43371433,-0.24801129,0.17715092
1757748438855,9.325416,-7.967903,3.787627,-0.43371433,-0.24801129,0.17715092
1757748438857,9.325416,-7.967903,3.787627,-0.7770206,-0.46792278,-0.007330383
1757748438875,8.39886,-7.2352777,3.8259344,-0.7770206,-0.46792278,-0.007330383
1757748438877,8.39886,-7.2352777,3.8259344,-0.79412484,-0.54733527,-0.17104226
1757748438895,7.2065473,-6.019023,3.976769,-0.79412484,-0.54733527,-0.17104226
1757748438896,7.2065473,-6.019023,3.976769,-0.47158796,-0.41050145,-0.23335053
1757748438917,6.1985884,-4.795586,4.27365,-0.47158796,-0.41050145,-0.23335053
1757748438918,6.1985884,-4.795586,4.27365,0.04153884,-0.19547687,-0.19914207
1757748438936,5.595249,-4.084508,4.2066126,0.04153884,-0.19547687,-0.19914207
1757748438937,5.595249,-4.084508,4.2066126,0.32986724,-0.061086524,-0.10262536
1757748438957,5.734113,-3.9624038,3.7588966,0.32986724,-0.061086524,-0.10262536
1757748438958,5.734113,-3.9624038,3.7588966,0.4373795,-0.037873644,0.02565634
1757748438976,5.8801594,-4.5298295,2.801216,0.4373795,-0.037873644,0.02565634
1757748438977,5.8801594,-4.5298295,2.801216,0.23335053,-0.11728613,0.12339478
1757748438997,5.683835,-4.501099,2.420538,0.23335053,-0.11728613,0.12339478
1757748438999,5.683835,-4.501099,2.420538,0.039095376,-0.21135938,0.11484267
1757748439016,5.415684,-4.2904096,2.3080103,0.039095376,-0.21135938,0.11484267
1757748439018,5.415684,-4.2904096,2.3080103,-0.019547688,-0.3042109,0.064751714
1757748439037,5.197812,-4.2305546,2.0853498,-0.019547688,-0.3042109,0.064751714
1757748439038,5.197812,-4.2305546,2.0853498,-0.16249016,-0.40561453,0.014660766
1757748439056,5.2169657,-4.5274353,1.5251064,-0.16249016,-0.40561453,0.014660766
1757748439057,5.2169657,-4.5274353,1.5251064,-0.453262,-0.5131268,-0.056199603
1757748439075,5.566519,-4.4220905,1.0941502,-0.453262,-0.5131268,-0.056199603
1757748439077,5.566519,-4.4220905,1.0941502,-0.6621779,-0.59498274,-0.096516706
1757748439096,5.590461,-4.1802764,1.2449849,-0.6621779,-0.59498274,-0.096516706
1757748439098,5.590461,-4.1802764,1.2449849,-0.7281514,-0.59864795,-0.12217305
1757748439119,4.939238,-4.1706996,1.364695,-0.7281514,-0.59864795,-0.12217305
1757748439120,4.939238,-4.1706996,1.364695,-0.7476991,-0.5216789,-0.13927728
1757748439136,3.3901896,-4.0462008,2.3439236,-0.7476991,-0.5216789,-0.13927728
1757748439137,3.3901896,-4.0462008,2.3439236,-0.4654793,-0.39584067,-0.14660765
1757748439157,2.4971523,-3.8235402,2.3942018,-0.4654793,-0.39584067,-0.14660765
1757748439158,2.4971523,-3.8235402,2.3942018,-0.19914207,-0.4251622,-0.19303341
1757748439175,2.6288335,-2.7269957,1.9369092,-0.19914207,-0.4251622,-0.19303341
1757748439176,2.6288335,-2.7269957,1.9369092,-0.032986723,-0.47525316,-0.20769419
1757748439197,3.2130187,-2.906561,1.5035586,-0.032986723,-0.47525316,-0.20769419
1757748439198,3.2130187,-2.906561,1.5035586,-0.10629055,-0.54244834,-0.19303341
1757748439216,3.9384618,-3.110068,0.9744401,-0.10629055,-0.54244834,-0.19303341
1757748439218,3.9384618,-3.110068,0.9744401,-0.02076942,-0.5839872,-0.15271631
1757748439237,4.7165775,-2.5785553,0.40462008,-0.02076942,-0.5839872,-0.15271631
1757748439238,4.7165775,-2.5785553,0.40462008,0.09285152,-0.59620446,-0.061086524
1757748439256,5.645528,-2.6647465,0.2681506,0.09285152,-0.59620446,-0.061086524
1757748439257,5.645528,-2.6647465,0.2681506,0.008552114,-0.5644395,0.064751714
1757748439276,5.33907,-2.9041667,0.80205756,0.008552114,-0.5644395,0.064751714
1757748439277,5.33907,-2.9041667,0.80205756,-0.10140363,-0.44593164,0.1600467
1757748439296,4.8865657,-2.9520507,1.5011644,-0.10140363,-0.44593164,0.1600467
1757748439297,4.8865657,-2.9520507,1.5011644,-0.18448131,-0.3200934,0.18692477
1757748439316,5.374983,-3.4835634,1.5897499,-0.18448131,-0.3200934,0.18692477
1757748439317,5.374983,-3.4835634,1.5897499,-0.5119051,-0.27855456,0.19303341
1757748439336,6.2728086,-5.566519,0.9696517,-0.5119051,-0.27855456,0.19303341
1757748439337,6.2728086,-5.566519,0.9696517,-0.5693264,-0.29932398,0.17348573
1757748439356,7.1059904,-6.4882865,0.8738836,-0.5693264,-0.29932398,0.17348573
1757748439358,7.1059904,-6.4882865,0.8738836,-0.030543262,-0.22724187,0.12095132
1757748439375,7.5225816,-5.9184666,1.8171991,-0.030543262,-0.22724187,0.12095132
1757748439377,7.5225816,-5.9184666,1.8171991,0.59620446,-0.13439035,0.037873644
1757748439397,7.1275387,-4.9799395,2.822764,0.59620446,-0.13439035,0.037873644
1757748439398,7.1275387,-4.9799395,2.822764,0.5876524,-0.1001819,-0.02565634
1757748439413,7.383718,-5.511452,2.9759927,0.5876524,-0.1001819,-0.02565634
1757748439414,7.383718,-5.511452,2.9759927,-0.11484267,-0.14660765,-0.043982297
1757748439435,8.623915,-7.0581064,2.5306711,-0.11484267,-0.14660765,-0.043982297
1757748439436,8.623915,-7.0581064,2.5306711,-0.56688297,-0.14660765,-0.008552114
1757748439454,9.28232,-8.384495,2.1787236,-0.56688297,-0.14660765,-0.008552114
1757748439455,9.28232,-8.384495,2.1787236,-0.5119051,-0.1160644,0.030543262
1757748439474,9.552865,-9.241618,1.8435353,-0.5119051,-0.1160644,0.030543262
1757748439475,9.552865,-9.241618,1.8435353,0.13194689,-0.095294975,0.008552114
1757748439493,9.540894,-8.772355,1.6208745,0.13194689,-0.095294975,0.008552114
1757748439494,9.540894,-8.772355,1.6208745,0.5131268,-0.064751714,-0.037873644
1757748439514,10.170568,-8.619126,1.6304513,0.5131268,-0.064751714,-0.037873644
1757748439515,10.170568,-8.619126,1.6304513,0.5839872,-0.034208454,-0.07452556
1757748439532,10.7356,-8.796297,1.5993267,0.5839872,-0.034208454,-0.07452556
1757748439533,10.7356,-8.796297,1.5993267,0.36285394,-0.02687807,-0.05497787
1757748439554,10.606314,-8.985439,1.3670892,0.36285394,-0.02687807,-0.05497787
1757748439554,10.606314,-8.985439,1.3670892,0.118507855,-0.09040806,-0.021991149
1757748439574,10.565612,-9.816227,0.23942018,0.118507855,-0.09040806,-0.021991149
1757748439574,10.565612,-9.816227,0.23942018,-0.09040806,-0.15393804,0.02076942
1757748439593,10.81461,-10.19451,0.4165911,-0.09040806,-0.15393804,0.02076942
1757748439594,10.81461,-10.19451,0.4165911,0.12950343,-0.13072516,0.0
1757748439615,11.228806,-10.1226845,1.4772224,0.12950343,-0.13072516,0.0
1757748439616,11.228806,-10.1226845,1.4772224,0.5143485,-0.06963864,-0.012217305
1757748439637,11.171345,-8.947132,2.5617957,0.5143485,-0.06963864,-0.012217305
1757748439638,11.171345,-8.947132,2.5617957,0.70616025,-0.058643065,0.019547688
1757748439655,11.192893,-8.341399,2.6791117,0.70616025,-0.058643065,0.019547688
1757748439656,11.192893,-8.341399,2.6791117,0.030543262,-0.20525073,0.119729586
1757748439676,11.59033,-9.78989,1.7980455,0.030543262,-0.20525073,0.119729586
1757748439677,11.59033,-9.78989,1.7980455,-0.65484756,-0.24190263,0.15271631
1757748439693,11.860875,-12.133814,1.3551182,-0.65484756,-0.24190263,0.15271631
1757748439694,11.860875,-12.133814,1.3551182,-0.49602258,-0.15271631,0.14538592
1757748439717,11.784261,-11.15698,2.0326772,-0.49602258,-0.15271631,0.14538592
1757748439718,11.784261,-11.15698,2.0326772,0.40317106,0.012217305,0.105068825
1757748439735,11.834539,-10.0269165,2.6767175,0.40317106,0.012217305,0.105068825
1757748439736,11.834539,-10.0269165,2.6767175,0.73426,0.047647487,0.057421334
1757748439757,12.433089,-9.481039,2.7461493,0.73426,0.047647487,0.057421334
1757748439758,12.433089,-9.481039,2.7461493,0.28344148,-0.028099801,0.02443461
1757748439776,12.983756,-9.85214,1.733402,0.28344148,-0.028099801,0.02443461
1757748439777,12.983756,-9.85214,1.733402,-0.19303341,-0.08552113,-0.014660766
1757748439797,12.457031,-9.497798,1.4532804,-0.19303341,-0.08552113,-0.014660766
1757748439799,12.457031,-9.497798,1.4532804,-0.23090707,-0.043982297,-0.034208454
1757748439815,11.791444,-9.67018,1.4293385,-0.23090707,-0.043982297,-0.034208454
1757748439816,11.791444,-9.67018,1.4293385,0.31764993,0.06841691,-0.119729586
1757748439837,11.822568,-9.028535,1.8076223,0.31764993,0.06841691,-0.119729586
1757748439839,11.822568,-9.028535,1.8076223,0.5742133,0.09040806,-0.17715092
1757748439855,11.429919,-8.688558,1.946486,0.5742133,0.09040806,-0.17715092
1757748439856,11.429919,-8.688558,1.946486,0.4202753,0.09285152,-0.204029
1757748439876,10.764331,-8.604761,1.8746599,0.4202753,0.09285152,-0.204029
1757748439878,10.764331,-8.604761,1.8746599,0.087964594,0.0720821,-0.21624629
1757748439896,10.84334,-8.791509,1.5993267,0.087964594,0.0720821,-0.21624629
1757748439898,10.84334,-8.791509,1.5993267,-0.16249016,0.052534413,-0.20769419
1757748439917,10.929531,-9.054871,1.2210429,-0.16249016,0.052534413,-0.20769419
1757748439919,10.929531,-9.054871,1.2210429,-0.23090707,0.042760566,-0.17104226
1757748439936,11.137826,-10.295067,0.6464345,-0.23090707,0.042760566,-0.17104226
1757748439938,11.137826,-10.295067,0.6464345,-0.09407325,0.06963864,-0.15882497
1757748439957,10.9822035,-10.09156,0.92895025,-0.09407325,0.06963864,-0.15882497
1757748439958,10.9822035,-10.09156,0.92895025,0.23090707,0.17592919,-0.16615535
1757748439976,10.546458,-9.574412,1.3383588,0.23090707,0.17592919,-0.16615535
1757748439977,10.546458,-9.574412,1.3383588,0.4166101,0.22602014,-0.20280726
1757748439997,10.120291,-8.090008,1.7166426,0.4166101,0.22602014,-0.20280726
1757748439998,10.120291,-8.090008,1.7166426,0.43493605,0.1881465,-0.25534168
1757748440016,10.25676,-7.541735,1.6783354,0.43493605,0.1881465,-0.25534168
1757748440018,10.25676,-7.541735,1.6783354,0.2687807,0.13439035,-0.21380283
1757748440037,10.326192,-7.417237,1.3958195,0.2687807,0.13439035,-0.21380283
1757748440039,10.326192,-7.417237,1.3958195,0.13561209,0.13194689,-0.1282817
1757748440057,10.058042,-7.9152308,0.8619126,0.13561209,0.13194689,-0.1282817
1757748440058,10.058042,-7.9152308,0.8619126,0.14905111,0.16615535,-0.06719518
1757748440077,9.334992,-8.039729,0.8475474,0.14905111,0.16615535,-0.06719518
1757748440078,9.334992,-8.039729,0.8475474,0.50946164,0.23090707,-0.05009095
1757748440097,8.334216,-6.8689647,1.3215994,0.50946164,0.23090707,-0.05009095
1757748440098,8.334216,-6.8689647,1.3215994,0.8417723,0.26511553,-0.0720821
1757748440117,7.192182,-5.7748146,1.8339585,0.8417723,0.26511553,-0.0720821
1757748440119,7.192182,-5.7748146,1.8339585,0.84788096,0.28710666,-0.09773844
1757748440136,6.0381765,-4.357447,2.2864625,0.84788096,0.28710666,-0.09773844
1757748440138,6.0381765,-4.357447,2.2864625,0.7367035,0.27488935,-0.10751228
1757748440157,5.2624555,-3.25372,2.5139117,0.7367035,0.27488935,-0.10751228
1757748440158,5.2624555,-3.25372,2.5139117,0.4202753,0.1563815,-0.07941248
1757748440176,4.6040497,-2.4516625,1.8818425,0.4202753,0.1563815,-0.07941248
1757748440177,4.6040497,-2.4516625,1.8818425,0.24556783,0.07696902,-0.06841691
1757748440194,4.4244847,-2.6408045,1.0773908,0.24556783,0.07696902,-0.06841691
1757748440194,4.4244847,-2.6408045,1.0773908,0.17592919,0.02687807,-0.09285152
1757748440215,4.1635165,-2.066196,0.557849,0.17592919,0.02687807,-0.09285152
1757748440217,4.1635165,-2.066196,0.557849,0.18448131,0.05497787,-0.119729586
1757748440237,3.6152446,-1.2761095,0.51475334,0.18448131,0.05497787,-0.119729586
1757748440238,3.6152446,-1.2761095,0.51475334,0.04520403,0.09285152,-0.13683382
1757748440257,2.767697,-0.7015011,0.8355764,0.04520403,0.09285152,-0.13683382
1757748440258,2.767697,-0.7015011,0.8355764,-0.15149458,0.119729586,-0.14172074
1757748440277,1.8962077,-0.59615624,1.043872,-0.15149458,0.119729586,-0.14172074
1757748440278,1.8962077,-0.59615624,1.043872,-0.44715336,0.13561209,-0.13439035
1757748440297,1.3000516,-0.5386954,1.3144168,-0.44715336,0.13561209,-0.13439035
1757748440299,1.3000516,-0.5386954,1.3144168,-0.675617,0.15027285,-0.096516706
1757748440316,1.0486604,-1.30484,0.90261406,-0.675617,0.15027285,-0.096516706
1757748440317,1.0486604,-1.30484,0.90261406,-0.59742624,0.19058995,-0.057421334
1757748440336,0.9935937,-1.4891934,0.82599956,-0.59742624,0.19058995,-0.057421334
1757748440337,0.9935937,-1.4891934,0.82599956,0.28955013,0.36774087,-0.0061086523
1757748440357,1.1348516,-0.3184288,1.3790601,0.28955013,0.36774087,-0.0061086523
1757748440359,1.1348516,-0.3184288,1.3790601,0.6768387,0.5009095,0.058643065
1757748440377,1.6687586,-1.0749966,1.2904748,0.6768387,0.5009095,0.058643065
1757748440378,1.6687586,-1.0749966,1.2904748,0.5326745,0.5497787,0.09162979
1757748440397,2.791639,-2.2888567,1.8531121,0.5326745,0.5497787,0.09162979
1757748440398,2.791639,-2.2888567,1.8531121,0.50335294,0.63041294,0.14172074
1757748440417,4.642357,-3.5482068,2.9903579,0.50335294,0.63041294,0.14172074
1757748440418,4.642357,-3.5482068,2.9903579,0.6084218,0.69027776,0.25167647
1757748440437,8.02297,-4.795586,3.7086184,0.6084218,0.69027776,0.25167647
1757748440439,8.02297,-4.795586,3.7086184,0.5717699,0.5815437,0.3494149
1757748440457,10.702082,-5.6790466,4.1299977,0.5717699,0.5815437,0.3494149
1757748440458,10.702082,-5.6790466,4.1299977,0.40561453,0.3200934,0.4007276
1757748440477,11.286267,-6.5098343,4.036624,0.40561453,0.3200934,0.4007276
1757748440479,11.286267,-6.5098343,4.036624,0.019547688,0.010995574,0.41783184
1757748440497,11.63582,-7.6829934,3.8259344,0.019547688,0.010995574,0.41783184
1757748440498,11.63582,-7.6829934,3.8259344,-0.6047566,-0.20769419,0.32986724
1757748440514,10.0748005,-8.525752,3.6224272,-0.6047566,-0.20769419,0.32986724
1757748440515,10.0748005,-8.525752,3.6224272,-0.9761627,-0.2565634,0.062308256
1757748440534,7.8290396,-7.249643,4.1946416,-0.9761627,-0.2565634,0.062308256
1757748440535,7.8290396,-7.249643,4.1946416,-0.7684685,-0.13316862,-0.11362094
1757748440554,5.571307,-5.4300494,5.1666875,-0.7684685,-0.13316862,-0.11362094
1757748440555,5.571307,-5.4300494,5.1666875,-0.376293,0.04886922,-0.18936823
1757748440574,4.209007,-4.3766007,5.104438,-0.376293,0.04886922,-0.18936823
1757748440575,4.209007,-4.3766007,5.104438,-0.052534413,0.17592919,-0.19547687
1757748440595,4.357447,-4.0701427,4.1419687,-0.052534413,0.17592919,-0.19547687
1757748440595,4.357447,-4.0701427,4.1419687,0.24312437,0.25289822,-0.12461651
1757748440614,5.2744265,-3.9983168,3.3183637,0.24312437,0.25289822,-0.12461651
1757748440614,5.2744265,-3.9983168,3.3183637,0.49113566,0.26389378,0.036651913
1757748440634,5.935226,-3.7565024,2.8419175,0.49113566,0.26389378,0.036651913
1757748440634,5.935226,-3.7565024,2.8419175,0.49113566,0.21380283,0.13927728
1757748440653,6.5577183,-4.2066126,2.2864625,0.49113566,0.21380283,0.13927728
1757748440654,6.5577183,-4.2066126,2.2864625,0.31031954,0.096516706,0.18325958
1757748440674,7.884106,-4.5034933,2.078167,0.31031954,0.096516706,0.18325958
1757748440675,7.884106,-4.5034933,2.078167,-0.11484267,-0.07452556,0.20647246
1757748440695,8.128315,-5.0182467,1.9393034,-0.11484267,-0.07452556,0.20647246
1757748440696,8.128315,-5.0182467,1.9393034,-0.47525316,-0.18081611,0.21013765
1757748440716,8.12592,-5.5856724,1.9177556,-0.47525316,-0.18081611,0.21013765
1757748440717,8.12592,-5.5856724,1.9177556,-0.71593404,-0.25045475,0.17470746
1757748440734,7.881712,-5.791574,2.0614076,-0.71593404,-0.25045475,0.17470746
1757748440735,7.881712,-5.791574,2.0614076,-0.7696902,-0.27122417,0.12705997
1757748440757,7.2448545,-5.971139,2.5378537,-0.7696902,-0.27122417,0.12705997
1757748440758,7.2448545,-5.971139,2.5378537,-0.72082096,-0.25778514,0.047647487
1757748440776,6.339846,-5.767632,3.1555579,-0.72082096,-0.25778514,0.047647487
1757748440777,6.339846,-5.767632,3.1555579,-0.6365216,-0.2406809,-0.029321533
1757748440797,5.6982,-5.674258,3.7181952,-0.6365216,-0.2406809,-0.029321533
1757748440798,5.6982,-5.674258,3.7181952,-0.63529986,-0.25534168,-0.07452556
1757748440816,5.5042696,-5.391742,4.0677485,-0.63529986,-0.25534168,-0.07452556
1757748440817,5.5042696,-5.391742,4.0677485,-0.68661255,-0.3323107,-0.09285152
1757748440838,5.12838,-5.662287,3.7493198,-0.68661255,-0.3323107,-0.09285152
1757748440839,5.12838,-5.662287,3.7493198,-0.72692966,-0.4728097,-0.11362094
1757748440854,5.0661306,-4.841076,2.2888567,-0.72692966,-0.4728097,-0.11362094
1757748440855,5.0661306,-4.841076,2.2888567,-0.36163223,-0.6230826,-0.1563815
1757748440877,4.7860093,-4.2640734,1.6208745,-0.36163223,-0.6230826,-0.1563815
1757748440879,4.7860093,-4.2640734,1.6208745,-0.09040806,-0.6035349,-0.15149458
1757748440897,4.594473,-3.7229836,1.3910311,-0.09040806,-0.6035349,-0.15149458
1757748440898,4.594473,-3.7229836,1.3910311,0.05375614,-0.52656585,-0.112399206
1757748440917,3.7588966,-3.526659,1.3718776,0.05375614,-0.52656585,-0.112399206
1757748440918,3.7588966,-3.526659,1.3718776,0.043982297,-0.43249258,-0.061086524
1757748440937,3.2441432,-3.3806129,1.340753,0.043982297,-0.43249258,-0.061086524
1757748440938,3.2441432,-3.3806129,1.340753,0.1282817,-0.33964106,-0.065973446
1757748440957,3.4213142,-2.60968,1.2737153,0.1282817,-0.33964106,-0.065973446
1757748440958,3.4213142,-2.60968,1.2737153,0.24190263,-0.2565634,-0.05009095
1757748440977,4.3646297,-1.8219875,0.94331545,0.24190263,-0.2565634,-0.05009095
1757748440978,4.3646297,-1.8219875,0.94331545,0.26389378,-0.22357668,-0.009773844
1757748440997,4.9655743,-1.8579005,0.29688102,0.26389378,-0.22357668,-0.009773844
1757748440998,4.9655743,-1.8579005,0.29688102,0.1282817,-0.1966986,0.032986723
1757748441017,5.035006,-2.1930888,-0.23942018,0.1282817,-0.1966986,0.032986723
1757748441019,5.035006,-2.1930888,-0.23942018,0.14782938,-0.13072516,0.07941248
1757748441037,4.685453,-2.4708161,0.11252748,0.14782938,-0.13072516,0.07941248
1757748441038,4.685453,-2.4708161,0.11252748,0.28588495,-0.0720821,0.09285152
1757748441056,4.5872903,-2.920926,0.80924016,0.28588495,-0.0720821,0.09285152
1757748441057,4.5872903,-2.920926,0.80924016,0.4605924,-0.02076942,0.08307768
1757748441078,4.656722,-2.5139117,1.4221559,0.4605924,-0.02076942,0.08307768
1757748441080,4.656722,-2.5139117,1.4221559,0.44348818,0.010995574,0.119729586
1757748441096,5.291186,-2.8562827,1.2761095,0.44348818,0.010995574,0.119729586
1757748441098,5.291186,-2.8562827,1.2761095,-0.0036651916,-0.007330383,0.15149458
1757748441118,5.8562174,-3.9959226,0.8834604,-0.0036651916,-0.007330383,0.15149458
1757748441119,5.8562174,-3.9959226,0.8834604,-0.3567453,-0.05131268,0.20769419
1757748441136,6.670246,-5.923255,0.7134721,-0.3567453,-0.05131268,0.20769419
1757748441137,6.670246,-5.923255,0.7134721,-0.17470746,0.0,0.21746802
1757748441157,7.548918,-5.415684,1.8626889,-0.17470746,0.0,0.21746802
1757748441158,7.548918,-5.415684,1.8626889,0.32253686,0.07819075,0.22602014
1757748441177,7.632715,-5.475539,3.1531637,0.32253686,0.07819075,0.22602014
1757748441178,7.632715,-5.475539,3.1531637,0.22724187,0.02565634,0.21013765
1757748441199,7.979874,-6.7564373,3.0502129,0.22724187,0.02565634,0.21013765
1757748441200,7.979874,-6.7564373,3.0502129,-0.51923543,-0.18325958,0.057421334
1757748441214,8.836999,-7.4148426,2.5809495,-0.51923543,-0.18325958,0.057421334
1757748441215,8.836999,-7.4148426,2.5809495,-0.59131753,-0.21868975,0.009773844
1757748441235,9.3182335,-7.3549876,2.3918076,-0.59131753,-0.21868975,0.009773844
1757748441236,9.3182335,-7.3549876,2.3918076,-0.18448131,-0.18448131,0.04642576
1757748441255,9.421184,-8.085219,2.2816741,-0.18448131,-0.18448131,0.04642576
1757748441256,9.421184,-8.085219,2.2816741,0.19303341,-0.19181168,0.112399206
1757748441274,9.485827,-8.9758625,1.8171991,0.19303341,-0.19181168,0.112399206
1757748441275,9.485827,-8.9758625,1.8171991,0.4373795,-0.23579398,0.1441642
1757748441294,10.072407,-9.155427,2.3391352,0.4373795,-0.23579398,0.1441642
1757748441295,10.072407,-9.155427,2.3391352,0.3933972,-0.24923302,0.19425514
1757748441316,10.481815,-10.405201,2.870648,0.3933972,-0.24923302,0.19425514
1757748441316,10.481815,-10.405201,2.870648,-0.028099801,-0.267559,0.18692477
1757748441334,11.058818,-10.307038,2.5905263,-0.028099801,-0.267559,0.18692477
1757748441335,11.058818,-10.307038,2.5905263,-0.2919936,-0.3200934,0.14172074
1757748441356,11.75553,-11.183316,1.1587936,-0.2919936,-0.3200934,0.14172074
1757748441356,11.75553,-11.183316,1.1587936,-0.30176744,-0.43860126,0.1563815
1757748441376,12.363658,-12.014104,1.4796166,-0.30176744,-0.43860126,0.1563815
1757748441376,12.363658,-12.014104,1.4796166,0.3481932,-0.33964106,0.21624629
1757748441395,12.483368,-11.35091,2.542642,0.3481932,-0.33964106,0.21624629
1757748441396,12.483368,-11.35091,2.542642,1.0042624,-0.14782938,0.2003638
1757748441416,12.155362,-9.847352,3.775656,1.0042624,-0.14782938,0.2003638
1757748441417,12.155362,-9.847352,3.775656,1.0115929,-0.034208454,0.17470746
1757748441437,12.313379,-9.358934,3.70383,1.0115929,-0.034208454,0.17470746
1757748441438,12.313379,-9.358934,3.70383,0.3371976,-0.043982297,0.172264
1757748441456,12.485762,-9.945514,3.1052797,0.3371976,-0.043982297,0.172264
1757748441457,12.485762,-9.945514,3.1052797,-0.45204028,-0.11728613,0.20769419
1757748441476,12.361263,-12.308591,1.910573,-0.45204028,-0.11728613,0.20769419
1757748441477,12.361263,-12.308591,1.910573,-0.6792821,-0.14905111,0.14049901
1757748441497,12.129025,-12.01171,2.1308396,-0.6792821,-0.14905111,0.14049901
1757748441498,12.129025,-12.01171,2.1308396,0.21991149,-0.07819075,0.028099801
1757748441518,12.064383,-11.044453,2.8107927,0.21991149,-0.07819075,0.028099801
1757748441519,12.064383,-11.044453,2.8107927,1.078788,-0.073303826,-0.10995574
1757748441537,11.585542,-9.950302,2.2888567,1.078788,-0.073303826,-0.10995574
1757748441539,11.585542,-9.950302,2.2888567,0.8405506,-0.14538592,-0.14660765
1757748441558,11.343728,-9.856929,1.4341269,0.8405506,-0.14538592,-0.14660765
1757748441559,11.343728,-9.856929,1.4341269,0.2883284,-0.16982053,-0.13927728
1757748441577,11.281479,-9.28232,1.0726024,0.2883284,-0.16982053,-0.13927728
1757748441578,11.281479,-9.28232,1.0726024,-0.047647487,-0.07696902,-0.12705997
1757748441597,10.903194,-8.796297,1.1348516,-0.047647487,-0.07696902,-0.12705997
1757748441599,10.903194,-8.796297,1.1348516,-0.24923302,0.058643065,-0.057421334
1757748441617,10.943896,-9.488221,1.2114661,-0.24923302,0.058643065,-0.057421334
1757748441618,10.943896,-9.488221,1.2114661,-0.07452556,0.12583824,-0.034208454
1757748441636,10.81461,-8.846576,1.9919758,-0.07452556,0.12583824,-0.034208454
1757748441638,10.81461,-8.846576,1.9919758,0.4166101,0.19303341,0.014660766
1757748441657,10.845734,-8.070854,2.8203697,0.4166101,0.19303341,0.014660766
1757748441659,10.845734,-8.070854,2.8203697,0.45448375,0.21991149,0.047647487
1757748441678,10.563218,-9.021352,3.0190883,0.45448375,0.21991149,0.047647487
1757748441680,10.563218,-9.021352,3.0190883,0.013439035,0.20891592,0.04153884
1757748441697,10.290278,-9.600749,2.5115175,0.013439035,0.20891592,0.04153884
1757748441698,10.290278,-9.600749,2.5115175,-0.24190263,0.16249016,-0.058643065
1757748441719,10.0269165,-9.244013,2.0614076,-0.24190263,0.16249016,-0.058643065
1757748441720,10.0269165,-9.244013,2.0614076,-0.08674286,0.112399206,-0.15760323
1757748441737,9.825804,-8.846576,1.5801731,-0.08674286,0.112399206,-0.15760323
1757748441739,9.825804,-8.846576,1.5801731,0.058643065,0.10262536,-0.22968534
1757748441757,9.655815,-8.149862,1.2689269,0.058643065,0.10262536,-0.22968534
1757748441759,9.655815,-8.149862,1.2689269,0.23945917,0.12461651,-0.2846632
1757748441780,9.3421755,-7.1347213,1.508347,0.23945917,0.12461651,-0.2846632
1757748441782,9.3421755,-7.1347213,1.508347,0.3286455,0.172264,-0.30543262
1757748441799,8.7771435,-6.2752028,1.6424223,0.3286455,0.172264,-0.30543262
1757748441800,8.7771435,-6.2752028,1.6424223,0.20525073,0.21868975,-0.27977628
1757748441818,8.3150625,-6.126762,2.0039468,0.20525073,0.21868975,-0.27977628
1757748441820,8.3150625,-6.126762,2.0039468,-0.017104227,0.27000242,-0.22357668
1757748441837,7.7907324,-6.327875,2.336741,-0.017104227,0.27000242,-0.22357668
1757748441839,7.7907324,-6.327875,2.336741,-0.15149458,0.31031954,-0.17104226
1757748441856,7.1586633,-6.2632318,2.4301147,-0.15149458,0.31031954,-0.17104226
1757748441857,7.1586633,-6.2632318,2.4301147,-0.172264,0.3200934,-0.16126843
1757748441877,6.423643,-5.521029,2.1308396,-0.172264,0.3200934,-0.16126843
1757748441879,6.423643,-5.521029,2.1308396,-0.004886922,0.28099802,-0.19792034
1757748441897,5.4803276,-4.6471453,2.066196,-0.004886922,0.28099802,-0.19792034
1757748441898,5.4803276,-4.6471453,2.066196,0.040317107,0.28588495,-0.19792034
1757748441919,4.333505,-4.0677485,2.0087352,0.040317107,0.28588495,-0.19792034
1757748441920,4.333505,-4.0677485,2.0087352,0.0036651916,0.28955013,-0.20769419
1757748441937,3.3925838,-3.3135753,2.0135236,0.0036651916,0.28955013,-0.20769419
1757748441938,3.3925838,-3.3135753,2.0135236,-0.019547688,0.30787608,-0.23457226
1757748441958,2.9113493,-2.4181437,1.6184803,-0.019547688,0.30787608,-0.23457226
1757748441960,2.9113493,-2.4181437,1.6184803,-0.052534413,0.30665436,-0.2761111
1757748441977,2.5450363,-2.2505496,0.7206547,-0.052534413,0.30665436,-0.2761111
1757748441978,2.5450363,-2.2505496,0.7206547,-0.043982297,0.31031954,-0.27855456
1757748441998,2.0254946,-2.1691468,0.45250413,-0.043982297,0.31031954,-0.27855456
1757748441999,2.0254946,-2.1691468,0.45250413,0.26145032,0.37018433,-0.27366763
1757748442017,1.4053963,-1.3144168,1.0510546,0.26145032,0.37018433,-0.27366763
1757748442018,1.4053963,-1.3144168,1.0510546,0.53878313,0.44226643,-0.20647246
1757748442038,1.1827357,-0.81881696,1.2976574,0.53878313,0.44226643,-0.20647246
1757748442039,1.1827357,-0.81881696,1.2976574,0.5375614,0.4605924,-0.14782938
1757748442058,1.2904748,-1.0821792,1.2856863,0.5375614,0.4605924,-0.14782938
1757748442059,1.2904748,-1.0821792,1.2856863,0.50823987,0.4654793,-0.11362094
1757748442079,1.4077905,-1.6831238,1.1947067,0.50823987,0.4654793,-0.11362094
1757748442080,1.4077905,-1.6831238,1.1947067,0.46181414,0.49113566,-0.087964594
1757748442098,1.316811,-1.6496049,1.6472107,0.46181414,0.49113566,-0.087964594
1757748442099,1.316811,-1.6496049,1.6472107,0.5009095,0.53878313,-0.07452556
1757748442120,2.0853498,-1.6879122,2.111686,0.5009095,0.53878313,-0.07452556
1757748442122,2.0853498,-1.6879122,2.111686,0.516792,0.593761,-0.061086524
1757748442136,3.679888,-2.255338,2.6120741,0.516792,0.593761,-0.061086524
1757748442138,3.679888,-2.255338,2.6120741,0.57543504,0.6780604,-0.032986723
1757748442158,4.7860093,-2.8419175,3.2992098,0.57543504,0.6780604,-0.032986723
1757748442160,4.7860093,-2.8419175,3.2992098,0.77824235,0.7672467,0.036651913
1757748442177,6.7851677,-3.169923,3.9336734,0.77824235,0.7672467,0.036651913
1757748442179,6.7851677,-3.169923,3.9336734,0.8344419,0.72204274,0.1441642
1757748442198,10.151415,-3.964798,4.3167458,0.8344419,0.72204274,0.1441642
1757748442200,10.151415,-3.964798,4.3167458,0.6401868,0.5045747,0.24923302
1757748442219,12.540829,-5.839458,4.4077253,0.6401868,0.5045747,0.24923302
1757748442220,12.540829,-5.839458,4.4077253,-0.13927728,-0.017104227,0.45081854
1757748442239,11.604695,-8.207323,3.620033,-0.13927728,-0.017104227,0.45081854
1757748442240,11.604695,-8.207323,3.620033,-0.8735373,-0.35918877,0.4251622
1757748442255,10.481815,-8.791509,3.383007,-0.8735373,-0.35918877,0.4251622
1757748442256,10.481815,-8.791509,3.383007,-1.1948525,-0.49113566,0.22724187
1757748442276,7.517793,-7.8793178,3.7684734,-1.1948525,-0.49113566,0.22724187
1757748442277,7.517793,-7.8793178,3.7684734,-1.0189233,-0.25900686,0.004886922
1757748442295,4.594473,-5.9807158,5.2409077,-1.0189233,-0.25900686,0.004886922
1757748442297,4.594473,-5.9807158,5.2409077,-0.66828656,0.07086037,-0.09896017
1757748442315,2.837129,-4.2664676,6.279991,-0.66828656,0.07086037,-0.09896017
1757748442316,2.837129,-4.2664676,6.279991,-0.57543504,0.3359759,-0.14172074
1757748442335,3.5338416,-4.5082817,5.889736,-0.57543504,0.3359759,-0.14172074
1757748442336,3.5338416,-4.5082817,5.889736,-0.38606682,0.43860126,-0.118507855
1757748442355,4.9224787,-4.3119574,4.984728,-0.38606682,0.43860126,-0.118507855
1757748442356,4.9224787,-4.3119574,4.984728,0.15027285,0.3848451,0.029321533
1757748442375,5.9543796,-3.7804444,4.2161894,0.15027285,0.3848451,0.029321533
1757748442375,5.9543796,-3.7804444,4.2161894,0.5338962,0.29565877,0.16737708
1757748442396,6.943185,-3.8594532,3.2273839,0.5338962,0.29565877,0.16737708
1757748442397,6.943185,-3.8594532,3.2273839,0.48747048,0.13316862,0.21746802
1757748442416,7.445967,-3.9671922,2.8802247,0.48747048,0.13316862,0.21746802
1757748442417,7.445967,-3.9671922,2.8802247,0.21135938,-0.012217305,0.19058995
1757748442437,8.4826565,-4.8602295,2.4732103,0.21135938,-0.012217305,0.19058995
1757748442438,8.4826565,-4.8602295,2.4732103,-0.32742378,-0.19181168,0.09407325
1757748442456,9.088389,-5.683835,1.7764976,-0.32742378,-0.19181168,0.09407325
1757748442457,9.088389,-5.683835,1.7764976,-0.75136423,-0.28221974,-0.03176499
1757748442476,8.597578,-5.5617304,1.9632454,-0.75136423,-0.28221974,-0.03176499
1757748442477,8.597578,-5.5617304,1.9632454,-0.9211848,-0.24678956,-0.13439035
1757748442496,7.326257,-5.085284,2.6719291,-0.9211848,-0.24678956,-0.13439035
1757748442497,7.326257,-5.085284,2.6719291,-0.9773844,-0.19181168,-0.23701571
1757748442518,6.4643445,-4.015076,4.0198646,-0.9773844,-0.19181168,-0.23701571
1757748442518,6.4643445,-4.015076,4.0198646,-0.90408057,-0.1441642,-0.27977628
1757748442537,5.9280434,-3.8881836,4.8458643,-0.90408057,-0.1441642,-0.27977628
1757748442539,5.9280434,-3.8881836,4.8458643,-1.0861185,-0.16493362,-0.2724459
1757748442558,6.143522,-5.149928,4.4675803,-1.0861185,-0.16493362,-0.2724459
1757748442560,6.143522,-5.149928,4.4675803,-1.2669345,-0.27122417,-0.23823744
1757748442578,6.090849,-5.5737014,3.6008794,-1.2669345,-0.27122417,-0.23823744
1757748442580,6.090849,-5.5737014,3.6008794,-0.9431759,-0.31642818,-0.26145032
1757748442599,5.518635,-5.046977,3.0502129,-0.9431759,-0.31642818,-0.26145032
1757748442600,5.518635,-5.046977,3.0502129,-0.48991394,-0.344528,-0.32253686
1757748442615,4.7740383,-4.2880154,2.6048915,-0.48991394,-0.344528,-0.32253686
1757748442616,4.7740383,-4.2880154,2.6048915,-0.19425514,-0.3811799,-0.35063666
1757748442636,3.8115692,-3.821146,1.9321208,-0.19425514,-0.3811799,-0.35063666
1757748442637,3.8115692,-3.821146,1.9321208,-0.043982297,-0.40561453,-0.35308012
1757748442657,2.9257145,-3.0310593,1.6424223,-0.043982297,-0.40561453,-0.35308012
1757748442659,2.9257145,-3.0310593,1.6424223,0.0720821,-0.41416663,-0.32620203
1757748442660,2.9257145,-3.0310593,1.6424223,0.0720821,-0.41416663,-0.32620203
1757748442661,2.9257145,-3.0310593,1.6424223,0.0720821,-0.41416663,-0.32620203
1757748442679,2.1883004,-2.3678656,1.4077905,0.0720821,-0.41416663,-0.32620203
1757748442680,2.1883004,-2.3678656,1.4077905,0.013439035,-0.4361578,-0.2724459
1757748442700,1.8004397,-2.4851813,0.7206547,0.013439035,-0.4361578,-0.2724459
1757748442701,1.8004397,-2.4851813,0.7206547,-0.06841691,-0.45204028,-0.21380283
1757748442719,2.0135236,-2.8874073,0.2873042,-0.06841691,-0.45204028,-0.21380283
1757748442721,2.0135236,-2.8874073,0.2873042,0.0012217305,-0.46181414,-0.16493362
1757748442740,2.7820623,-2.528277,0.23702596,0.0012217305,-0.46181414,-0.16493362
1757748442742,2.7820623,-2.528277,0.23702596,0.09040806,-0.516792,-0.11362094
1757748442759,3.4739866,-2.0805612,0.24181437,0.09040806,-0.516792,-0.11362094
1757748442760,3.4739866,-2.0805612,0.24181437,0.028099801,-0.6059783,-0.034208454
1757748442780,3.9217024,-2.6240451,0.14844051,0.028099801,-0.6059783,-0.034208454
1757748442783,3.9217024,-2.6240451,0.14844051,-0.12339478,-0.6817256,0.05009095
1757748442799,4.819528,-3.8857894,0.545878,-0.12339478,-0.6817256,0.05009095
1757748442800,4.819528,-3.8857894,0.545878,-0.021991149,-0.7147123,0.15271631
1757748442820,5.6670756,-4.120421,1.1324574,-0.021991149,-0.7147123,0.15271631
1757748442822,5.6670756,-4.120421,1.1324574,0.31031954,-0.7489208,0.23579398
1757748442837,5.731719,-3.9743748,1.0319009,0.31031954,-0.7489208,0.23579398
1757748442839,5.731719,-3.9743748,1.0319009,0.40683624,-0.7684685,0.38240165
1757748442858,6.3829417,-4.8219223,0.79008657,0.40683624,-0.7684685,0.38240165
1757748442859,6.3829417,-4.8219223,0.79008657,0.12461651,-0.8368854,0.43004912
1757748442879,7.6111674,-5.7484784,0.878672,0.12461651,-0.8368854,0.43004912
1757748442880,7.6111674,-5.7484784,0.878672,-0.12705997,-0.6585127,0.49357912
1757748442898,7.599196,-6.2847795,1.6783354,-0.12705997,-0.6585127,0.49357912
1757748442900,7.599196,-6.2847795,1.6783354,-0.21868975,-0.54000485,0.49357912
1757748442923,7.053318,-6.105214,2.1021092,-0.21868975,-0.54000485,0.49357912
1757748442924,7.053318,-6.105214,2.1021092,-0.3640757,-0.5216789,0.535118
1757748442937,7.9463553,-7.1059904,1.7070658,-0.3640757,-0.5216789,0.535118
1757748442938,7.9463553,-7.1059904,1.7070658,-0.4288274,-0.56077427,0.5180137
1757748442957,8.90643,-7.1945763,1.4053963,-0.4288274,-0.56077427,0.5180137
1757748442958,8.90643,-7.1945763,1.4053963,-0.24923302,-0.47403142,0.4886922
1757748442977,9.998186,-7.441179,1.1851299,-0.24923302,-0.47403142,0.4886922
1757748442977,9.998186,-7.441179,1.1851299,-0.02565634,-0.30298916,0.44226643
1757748442996,10.8864355,-7.4483614,1.5562311,-0.02565634,-0.30298916,0.44226643
1757748442997,10.8864355,-7.4483614,1.5562311,-0.16982053,-0.17470746,0.3933972
1757748443017,10.146626,-8.827422,1.7190368,-0.16982053,-0.17470746,0.3933972
1757748443017,10.146626,-8.827422,1.7190368,-0.48258355,-0.19181168,0.32375857
1757748443036,9.301474,-8.844181,1.0127473,-0.48258355,-0.19181168,0.32375857
1757748443036,9.301474,-8.844181,1.0127473,-0.46670106,-0.25534168,0.25534168
1757748443058,10.390836,-8.801085,-0.7302315,-0.46670106,-0.25534168,0.25534168
1757748443058,10.390836,-8.801085,-0.7302315,-0.07696902,-0.26511553,0.019547688
1757748443077,11.468226,-9.11712,0.1340753,-0.07696902,-0.26511553,0.019547688
1757748443077,11.468226,-9.11712,0.1340753,0.48258355,-0.1966986,-0.064751714
1757748443098,11.877635,-8.628703,0.9744401,0.48258355,-0.1966986,-0.064751714
1757748443099,11.877635,-8.628703,0.9744401,0.7257079,-0.119729586,-0.10629055
1757748443118,11.57836,-8.6095495,1.13964,0.7257079,-0.119729586,-0.10629055
1757748443120,11.57836,-8.6095495,1.13964,0.34574974,-0.19181168,-0.10873401
1757748443139,11.707646,-9.52174,-0.011971008,0.34574974,-0.19181168,-0.10873401
1757748443141,11.707646,-9.52174,-0.011971008,-0.09040806,-0.267559,-0.14538592
1757748443158,12.241553,-11.032481,-0.21068975,-0.09040806,-0.267559,-0.14538592
1757748443159,12.241553,-11.032481,-0.21068975,0.13194689,-0.17470746,-0.24312437
1757748443181,12.847286,-11.300632,0.9864111,0.13194689,-0.17470746,-0.24312437
1757748443182,12.847286,-11.300632,0.9864111,0.66339964,-0.08674286,-0.2968805
1757748443200,13.278243,-10.817003,2.0733786,0.66339964,-0.08674286,-0.2968805
1757748443201,13.278243,-10.817003,2.0733786,0.689056,-0.09162979,-0.29810223
1757748443220,11.927913,-10.651803,1.8267759,0.689056,-0.09162979,-0.29810223
1757748443222,11.927913,-10.651803,1.8267759,0.040317107,-0.21502456,-0.28099802
1757748443239,11.892,-10.546458,0.9552865,0.040317107,-0.21502456,-0.28099802
1757748443240,11.892,-10.546458,0.9552865,-0.0842994,-0.1881465,-0.25045475
1757748443260,12.291832,-11.501745,0.4189853,-0.0842994,-0.1881465,-0.25045475
1757748443261,12.291832,-11.501745,0.4189853,0.07819075,-0.09285152,-0.22724187
1757748443280,12.5982895,-11.492168,0.59615624,0.07819075,-0.09285152,-0.22724187
1757748443282,12.5982895,-11.492168,0.59615624,0.3408628,-0.004886922,-0.18448131
1757748443299,12.330139,-10.943896,0.5482722,0.3408628,-0.004886922,-0.18448131
1757748443301,12.330139,-10.943896,0.5482722,0.5290093,0.07941248,-0.15271631
1757748443320,11.781867,-9.849746,0.8619126,0.5290093,0.07941248,-0.15271631
1757748443321,11.781867,-9.849746,0.8619126,0.66950834,0.17348573,-0.13683382
1757748443341,11.463438,-9.196129,0.842759,0.66950834,0.17348573,-0.13683382
1757748443342,11.463438,-9.196129,0.842759,0.7305948,0.22479841,-0.118507855
1757748443360,11.075577,-8.3390045,0.89782566,0.7305948,0.22479841,-0.118507855
1757748443361,11.075577,-8.3390045,0.89782566,0.7733554,0.25411993,-0.07452556
1757748443381,10.675745,-8.169016,1.0199299,0.7733554,0.25411993,-0.07452556
1757748443382,10.675745,-8.169016,1.0199299,0.5693264,0.2883284,-0.02565634
1757748443401,10.721235,-7.8505874,0.9911995,0.5693264,0.2883284,-0.02565634
1757748443402,10.721235,-7.8505874,0.9911995,0.18081611,0.39584067,0.13316862
1757748443421,10.692505,-7.740454,-0.1364695,0.18081611,0.39584067,0.13316862
1757748443422,10.692505,-7.740454,-0.1364695,-0.058643065,0.49357912,0.23945917
1757748443440,10.723629,-8.858546,0.7110779,-0.058643065,0.49357912,0.23945917
1757748443441,10.723629,-8.858546,0.7110779,0.26389378,0.5729916,0.33964106
1757748443461,9.775525,-9.153033,2.4995465,0.26389378,0.5729916,0.33964106
1757748443462,9.775525,-9.153033,2.4995465,0.86254174,0.6988298,0.42149702
1757748443480,9.627085,-8.133103,3.323152,0.86254174,0.6988298,0.42149702
1757748443482,9.627085,-8.133103,3.323152,0.8503244,0.7147123,0.39095375
1757748443501,9.639056,-7.9008656,2.896984,0.8503244,0.7147123,0.39095375
1757748443502,9.639056,-7.9008656,2.896984,0.009773844,0.6267477,0.34697145
1757748443520,9.672575,-7.855376,2.3582888,0.009773844,0.6267477,0.34697145
1757748443522,9.672575,-7.855376,2.3582888,-0.9089675,0.51923543,0.33108896
1757748443541,9.572019,-7.651869,2.3463178,-0.9089675,0.51923543,0.33108896
1757748443542,9.572019,-7.651869,2.3463178,-1.4660766,0.4361578,0.30665436
1757748443559,8.590396,-8.508993,2.8921957,-1.4660766,0.4361578,0.30665436
1757748443560,8.590396,-8.508993,2.8921957,-1.505172,0.35308012,0.29565877
1757748443581,8.279149,-8.724471,2.8562827,-1.505172,0.35308012,0.29565877
1757748443582,8.279149,-8.724471,2.8562827,-1.1557571,0.3200934,0.23579398
1757748443601,7.9990277,-8.200141,2.5187001,-1.1557571,0.3200934,0.23579398
1757748443602,7.9990277,-8.200141,2.5187001,-0.74281216,0.29565877,0.17104226
1757748443621,7.9966335,-7.503428,2.0326772,-0.74281216,0.29565877,0.17104226
1757748443622,7.9966335,-7.503428,2.0326772,-0.5766568,0.28955013,0.13072516
1757748443640,7.723695,-7.21373,1.7788919,-0.5766568,0.28955013,0.13072516
1757748443642,7.723695,-7.21373,1.7788919,-0.49113566,0.28221974,0.14172074
1757748443661,6.9407907,-6.2752028,1.2976574,-0.49113566,0.28221974,0.14172074
1757748443663,6.9407907,-6.2752028,1.2976574,-0.4642576,0.32375857,0.13316862
1757748443680,6.131551,-5.21936,1.2234371,-0.4642576,0.32375857,0.13316862
1757748443682,6.131551,-5.21936,1.2234371,-0.47647488,0.35185838,0.16737708
1757748443701,5.142745,-4.2521024,1.1683705,-0.47647488,0.35185838,0.16737708
1757748443702,5.142745,-4.2521024,1.1683705,-0.44104472,0.35918877,0.23090707
1757748443720,4.271256,-4.283227,1.0941502,-0.44104472,0.35918877,0.23090707
1757748443722,4.271256,-4.283227,1.0941502,-0.43982297,0.34208453,0.2687807
1757748443739,3.8426938,-3.4644098,0.39983168,-0.43982297,0.34208453,0.2687807
1757748443741,3.8426938,-3.4644098,0.39983168,-0.49357912,0.33841935,0.23823744
1757748443759,4.060566,-3.193865,0.023942016,-0.49357912,0.33841935,0.23823744
1757748443760,4.060566,-3.193865,0.023942016,-0.40317106,0.37507126,0.19792034
1757748443779,3.1316159,-2.9520507,0.36870706,-0.40317106,0.37507126,0.19792034
1757748443784,3.1316159,-2.9520507,0.36870706,0.03176499,0.47891834,0.14905111
1757748443800,1.661576,-2.3127987,1.1204864,0.03176499,0.47891834,0.14905111
1757748443802,1.661576,-2.3127987,1.1204864,0.47769663,0.5742133,-0.0036651916
1757748443821,0.39983168,-1.5705963,1.5562311,0.47769663,0.5742133,-0.0036651916
1757748443823,0.39983168,-1.5705963,1.5562311,0.8246681,0.57787853,-0.14294247
1757748443839,0.011971008,-1.2641385,1.2330139,0.8246681,0.57787853,-0.14294247
1757748443840,0.011971008,-1.2641385,1.2330139,1.2131784,0.5290093,-0.26511553
1757748443862,0.46686932,-1.0582372,0.2633622,1.2131784,0.5290093,-0.26511553
1757748443864,0.46686932,-1.0582372,0.2633622,1.5479325,0.46792278,-0.41416663
1757748443880,1.1707647,-1.3120226,-0.58897364,1.5479325,0.46792278,-0.41416663
1757748443881,1.1707647,-1.3120226,-0.58897364,1.6077974,0.4092797,-0.4569272
1757748443902,1.7549498,-1.127669,0.4405331,1.6077974,0.4092797,-0.4569272
1757748443903,1.7549498,-1.127669,0.4405331,1.4856243,0.35918877,-0.3652974
1757748443920,2.5067291,-1.9081788,1.0462662,1.4856243,0.35918877,-0.3652974
1757748443921,2.5067291,-1.9081788,1.0462662,0.8503244,0.34574974,-0.26145032
1757748443941,3.2800562,-3.8163576,1.7597382,0.8503244,0.34574974,-0.26145032
1757748443942,3.2800562,-3.8163576,1.7597382,0.22602014,0.3567453,-0.11362094
1757748443960,4.4244847,-5.3366756,2.8538885,0.22602014,0.3567453,-0.11362094
1757748443961,4.4244847,-5.3366756,2.8538885,-0.039095376,0.36163223,0.010995574
1757748443981,6.069301,-6.361394,4.2066126,-0.039095376,0.36163223,0.010995574
1757748443983,6.069301,-6.361394,4.2066126,0.009773844,0.27488935,0.09285152
1757748444001,8.2169,-7.651869,4.6902413,0.009773844,0.27488935,0.09285152
1757748444003,8.2169,-7.651869,4.6902413,-0.1685988,0.06963864,0.16982053
1757748444021,10.529699,-9.720459,4.429273,-0.1685988,0.06963864,0.16982053
1757748444022,10.529699,-9.720459,4.429273,-0.53023106,-0.24923302,0.14905111
1757748444040,11.887212,-10.747571,4.4196963,-0.53023106,-0.24923302,0.14905111
1757748444042,11.887212,-10.747571,4.4196963,-0.66950834,-0.52534413,0.12339478
1757748444058,10.850522,-11.27669,3.550601,-0.66950834,-0.52534413,0.12339478
1757748444059,10.850522,-11.27669,3.550601,-0.72082096,-0.6621779,0.009773844
1757748444078,7.091625,-8.350976,3.9911342,-0.72082096,-0.6621779,0.009773844
1757748444079,7.091625,-8.350976,3.9911342,-0.080634214,-0.3555236,-0.22357668
1757748444098,4.757279,-5.8825536,4.3957543,-0.080634214,-0.3555236,-0.22357668
1757748444100,4.757279,-5.8825536,4.3957543,0.3555236,-0.032986723,-0.26633725
1757748444117,3.514688,-4.06296,3.9719806,0.3555236,-0.032986723,-0.26633725
1757748444118,3.514688,-4.06296,3.9719806,0.7305948,0.23457226,-0.2125811
1757748444137,3.9217024,-3.490746,3.572149,0.7305948,0.23457226,-0.2125811
1757748444138,3.9217024,-3.490746,3.572149,1.1191051,0.40317106,-0.16249016
1757748444157,4.927267,-3.2345665,2.9400797,1.1191051,0.40317106,-0.16249016
1757748444157,4.927267,-3.2345665,2.9400797,1.319469,0.45937067,-0.002443461
1757748444178,5.93762,-3.4596214,2.8203697,1.319469,0.45937067,-0.002443461
1757748444179,5.93762,-3.4596214,2.8203697,1.1239921,0.38240165,0.1600467
1757748444198,6.751649,-4.309563,2.7269957,1.1239921,0.38240165,0.1600467
1757748444198,6.751649,-4.309563,2.7269957,0.657291,0.24312437,0.2565634
1757748444219,7.445967,-5.056554,2.4875755,0.657291,0.24312437,0.2565634
1757748444220,7.445967,-5.056554,2.4875755,0.07941248,0.064751714,0.23701571
1757748444239,8.4108305,-6.277597,2.0973208,0.07941248,0.064751714,0.23701571
1757748444240,8.4108305,-6.277597,2.0973208,-0.41050145,-0.21502456,0.1600467
1757748444260,8.475474,-6.3829417,2.3918076,-0.41050145,-0.21502456,0.1600467
1757748444260,8.475474,-6.3829417,2.3918076,-0.42638394,-0.28344148,0.042760566
1757748444278,7.953538,-5.889736,2.9879637,-0.42638394,-0.28344148,0.042760566
1757748444279,7.953538,-5.889736,2.9879637,-0.41416663,-0.2919936,-0.02565634
1757748444300,7.026982,-5.681441,3.6056678,-0.41416663,-0.2919936,-0.02565634
1757748444301,7.026982,-5.681441,3.6056678,-0.46303585,-0.2883284,-0.08674286
1757748444319,6.0022635,-4.7141833,4.63278,-0.46303585,-0.2883284,-0.08674286
1757748444320,6.0022635,-4.7141833,4.63278,-0.44226643,-0.29443705,-0.09407325
1757748444340,5.2600613,-4.477157,4.996699,-0.44226643,-0.29443705,-0.09407325
1757748444341,5.2600613,-4.477157,4.996699,-0.5119051,-0.33475417,-0.04153884
1757748444359,5.386954,-4.924873,4.060566,-0.5119051,-0.33475417,-0.04153884
1757748444360,5.386954,-4.924873,4.060566,-0.548557,-0.39706242,-0.0036651916
1757748444380,5.8825536,-5.6215854,3.2130187,-0.548557,-0.39706242,-0.0036651916
1757748444381,5.8825536,-5.6215854,3.2130187,-0.30665436,-0.4092797,0.019547688
1757748444400,6.351817,-5.5018754,2.9017725,-0.30665436,-0.4092797,0.019547688
1757748444401,6.351817,-5.5018754,2.9017725,0.02321288,-0.39461896,0.021991149
1757748444422,6.0716953,-5.0062757,2.4181437,0.02321288,-0.39461896,0.021991149
1757748444423,6.0716953,-5.0062757,2.4181437,-0.17715092,-0.41905355,0.0012217305
1757748444441,5.829881,-4.6136265,2.195483,-0.17715092,-0.41905355,0.0012217305
1757748444443,5.829881,-4.6136265,2.195483,-0.38728857,-0.4605924,-0.013439035
1757748444462,5.104438,-4.295198,2.1045034,-0.38728857,-0.4605924,-0.013439035
1757748444463,5.104438,-4.295198,2.1045034,-0.5216789,-0.47403142,-0.030543262
1757748444481,4.4005427,-4.0054994,1.9680338,-0.5216789,-0.47403142,-0.030543262
1757748444483,4.4005427,-4.0054994,1.9680338,-0.4801401,-0.47403142,-0.017104227
1757748444502,3.8307228,-3.763685,1.6472107,-0.4801401,-0.47403142,-0.017104227
1757748444504,3.8307228,-3.763685,1.6472107,-0.28710666,-0.4288274,-0.010995574
1757748444521,3.2489316,-3.7900212,1.4987702,-0.28710666,-0.4288274,-0.010995574
1757748444523,3.2489316,-3.7900212,1.4987702,-0.1001819,-0.35308012,-0.028099801
1757748444542,2.9520507,-3.596091,1.4053963,-0.1001819,-0.35308012,-0.028099801
1757748444543,2.9520507,-3.596091,1.4053963,0.14049901,-0.27122417,-0.043982297
1757748444561,3.2202013,-2.882619,1.2449849,0.14049901,-0.27122417,-0.043982297
1757748444562,3.2202013,-2.882619,1.2449849,0.3921755,-0.21380283,-0.036651913
1757748444582,4.9775453,-2.9137435,0.93613285,0.3921755,-0.21380283,-0.036651913
1757748444583,4.9775453,-2.9137435,0.93613285,0.12217305,-0.23945917,0.03176499
1757748444600,5.485116,-3.8043866,0.41180268,0.12217305,-0.23945917,0.03176499
1757748444601,5.485116,-3.8043866,0.41180268,-0.15515977,-0.21380283,0.089186326
1757748444622,5.0397944,-4.7907977,0.48602295,-0.15515977,-0.21380283,0.089186326
1757748444623,5.0397944,-4.7907977,0.48602295,-0.14660765,-0.1160644,0.13805555
1757748444640,4.8722005,-5.0302176,1.0414777,-0.14660765,-0.1160644,0.13805555
1757748444642,4.8722005,-5.0302176,1.0414777,0.27000242,0.04886922,0.14782938
1757748444662,5.303157,-4.5082817,2.1811178,0.27000242,0.04886922,0.14782938
1757748444663,5.303157,-4.5082817,2.1811178,0.7367035,0.15027285,0.15271631
1757748444682,5.6790466,-3.9624038,2.9520507,0.7367035,0.15027285,0.15271631
1757748444683,5.6790466,-3.9624038,2.9520507,0.6035349,0.14538592,0.14905111
1757748444702,6.4140663,-5.0517654,2.932897,0.6035349,0.14538592,0.14905111
1757748444703,6.4140663,-5.0517654,2.932897,0.0,0.08674286,0.18203785
1757748444722,6.859388,-6.5577183,2.3750482,0.0,0.08674286,0.18203785
1757748444723,6.859388,-6.5577183,2.3750482,-0.31398472,0.12461651,0.2284636
1757748444742,6.9719152,-7.053318,2.2505496,-0.31398472,0.12461651,0.2284636
1757748444743,6.9719152,-7.053318,2.2505496,0.08307768,0.2602286,0.19792034
1757748444762,7.1849995,-5.923255,2.9400797,0.08307768,0.2602286,0.19792034
1757748444763,7.1849995,-5.923255,2.9400797,0.83077675,0.37507126,0.09773844
1757748444779,7.48188,-5.3342814,3.3854012,0.83077675,0.37507126,0.09773844
1757748444781,7.48188,-5.3342814,3.3854012,0.83199847,0.36285394,0.062308256
1757748444799,7.6710224,-5.755661,3.454833,0.83199847,0.36285394,0.062308256
1757748444800,7.6710224,-5.755661,3.454833,0.45081854,0.3286455,0.073303826
1757748444819,7.553706,-6.4787097,3.0214825,0.45081854,0.3286455,0.073303826
1757748444820,7.553706,-6.4787097,3.0214825,0.09407325,0.28710666,0.111177474
1757748444838,7.726089,-7.4028716,2.4420857,0.09407325,0.28710666,0.111177474
1757748444839,7.726089,-7.4028716,2.4420857,-0.02687807,0.23457226,0.112399206
1757748444858,8.192958,-7.3885064,2.4013844,-0.02687807,0.23457226,0.112399206
1757748444858,8.192958,-7.3885064,2.4013844,0.10995574,0.23090707,0.07819075
1757748444877,8.02297,-7.517793,3.1292217,0.10995574,0.23090707,0.07819075
1757748444877,8.02297,-7.517793,3.1292217,0.22235495,0.26267207,0.065973446
1757748444898,7.4603324,-7.3789296,3.6583402,0.22235495,0.26267207,0.065973446
1757748444898,7.4603324,-7.3789296,3.6583402,0.21135938,0.2761111,0.09773844
1757748444917,7.5106106,-7.165846,3.7900212,0.21135938,0.2761111,0.09773844
1757748444917,7.5106106,-7.165846,3.7900212,-0.04642576,0.15149458,0.12950343
1757748444938,7.893683,-7.8888946,3.2249897,-0.04642576,0.15149458,0.12950343
1757748444938,7.893683,-7.8888946,3.2249897,-0.25045475,0.06963864,0.1563815
1757748444960,8.221688,-9.138668,3.1794999,-0.25045475,0.06963864,0.1563815
1757748444962,8.221688,-9.138668,3.1794999,-0.23701571,0.081855945,0.17959438
1757748444981,8.710106,-9.753978,3.8235402,-0.23701571,0.081855945,0.17959438
1757748444982,8.710106,-9.753978,3.8235402,0.18325958,0.1881465,0.17715092
1757748444999,8.978256,-9.006987,4.7740383,0.18325958,0.1881465,0.17715092
1757748445000,8.978256,-9.006987,4.7740383,0.52412236,0.20647246,0.14538592
1757748445021,9.363723,-7.560889,5.497087,0.52412236,0.20647246,0.14538592
1757748445022,9.363723,-7.560889,5.497087,0.44837508,0.15882497,0.09896017
1757748445041,10.077195,-7.929596,4.865018,0.44837508,0.15882497,0.09896017
1757748445043,10.077195,-7.929596,4.865018,-0.172264,0.05009095,0.1282817
1757748445062,10.840945,-9.054871,3.9145198,-0.172264,0.05009095,0.1282817
1757748445064,10.840945,-9.054871,3.9145198,-0.59620446,0.0,0.17959438
1757748445083,10.9582615,-11.054029,3.4213142,-0.59620446,0.0,0.17959438
1757748445084,10.9582615,-11.054029,3.4213142,-0.4886922,-0.0012217305,0.17104226
1757748445105,10.754754,-11.18571,4.0054994,-0.4886922,-0.0012217305,0.17104226
1757748445106,10.754754,-11.18571,4.0054994,0.38362336,0.05131268,0.013439035
1757748445122,10.783484,-9.765948,4.6519337,0.38362336,0.05131268,0.013439035
1757748445123,10.783484,-9.765948,4.6519337,0.32375857,0.009773844,-0.105068825
1757748445143,10.534488,-9.181764,4.7668557,0.32375857,0.009773844,-0.105068825
1757748445144,10.534488,-9.181764,4.7668557,-0.2724459,-0.06963864,-0.14172074
1757748445162,10.029311,-9.095572,4.5178585,-0.2724459,-0.06963864,-0.14172074
1757748445163,10.029311,-9.095572,4.5178585,-0.8368854,-0.096516706,-0.10751228
1757748445183,9.61272,-10.388441,3.466804,-0.8368854,-0.096516706,-0.10751228
1757748445184,9.61272,-10.388441,3.466804,-1.0567969,-0.07941248,-0.036651913
1757748445201,10.022128,-11.9374895,3.3183637,-1.0567969,-0.07941248,-0.036651913
1757748445203,10.022128,-11.9374895,3.3183637,-0.3652974,-0.037873644,-0.052534413
1757748445223,10.225636,-10.888829,4.1276035,-0.3652974,-0.037873644,-0.052534413
1757748445224,10.225636,-10.888829,4.1276035,0.6072,0.056199603,-0.07941248
1757748445242,9.919178,-9.308656,4.9296613,0.6072,0.056199603,-0.07941248
1757748445244,9.919178,-9.308656,4.9296613,0.675617,0.087964594,-0.052534413
1757748445266,9.576807,-9.488221,4.4675803,0.675617,0.087964594,-0.052534413
1757748445268,9.576807,-9.488221,4.4675803,-0.43127087,0.06352998,-0.037873644
1757748445281,9.442732,-10.400413,3.301604,-0.43127087,0.06352998,-0.037873644
1757748445283,9.442732,-10.400413,3.301604,-0.82833326,0.052534413,-0.012217305
1757748445301,9.109938,-11.235989,2.0111294,-0.82833326,0.052534413,-0.012217305
1757748445303,9.109938,-11.235989,2.0111294,-0.6597345,0.06963864,-0.047647487
1757748445323,9.093178,-10.996569,1.970428,-0.6597345,0.06963864,-0.047647487
1757748445324,9.093178,-10.996569,1.970428,-0.12339478,0.15515977,-0.103847094
1757748445343,8.865729,-9.085996,2.633622,-0.12339478,0.15515977,-0.103847094
1757748445344,8.865729,-9.085996,2.633622,0.17470746,0.2565634,-0.13805555
1757748445363,8.47308,-8.1881695,3.071761,0.17470746,0.2565634,-0.13805555
1757748445364,8.47308,-8.1881695,3.071761,-0.15393804,0.23945917,-0.112399206
1757748445383,8.63828,-8.243237,2.6599581,-0.15393804,0.23945917,-0.112399206
1757748445384,8.63828,-8.243237,2.6599581,-0.59620446,0.20280726,-0.103847094
1757748445402,8.686164,-8.073248,2.042254,-0.59620446,0.20280726,-0.103847094
1757748445404,8.686164,-8.073248,2.042254,-0.7367035,0.18936823,-0.065973446
1757748445423,8.48984,-7.726089,2.267309,-0.7367035,0.18936823,-0.065973446
1757748445424,8.48984,-7.726089,2.267309,-0.7696902,0.1600467,-0.02443461
1757748445442,7.845799,-7.6111674,2.4827871,-0.7696902,0.1600467,-0.02443461
1757748445443,7.845799,-7.6111674,2.4827871,-1.0995574,0.014660766,0.014660766
1757748445463,7.3166804,-8.295909,1.6232687,-1.0995574,0.014660766,0.014660766
1757748445464,7.3166804,-8.295909,1.6232687,-1.5271631,-0.10629055,-0.014660766
1757748445482,7.055712,-8.559271,0.8738836,-1.5271631,-0.10629055,-0.014660766
1757748445484,7.055712,-8.559271,0.8738836,-1.7605137,-0.21624629,-0.059864793
1757748445503,6.7947445,-8.9998045,0.019153614,-1.7605137,-0.21624629,-0.059864793
1757748445505,6.7947445,-8.9998045,0.019153614,-1.6041322,-0.27366763,-0.12705997
1757748445522,6.739678,-8.604761,0.24181437,-1.6041322,-0.27366763,-0.12705997
1757748445524,6.739678,-8.604761,0.24181437,-1.1142182,-0.3005457,-0.204029
1757748445543,6.291962,-7.132327,1.0965444,-1.1142182,-0.3005457,-0.204029
1757748445544,6.291962,-7.132327,1.0965444,-0.77824235,-0.2919936,-0.23945917
1757748445563,5.949591,-6.045359,2.0350714,-0.77824235,-0.2919936,-0.23945917
1757748445564,5.949591,-6.045359,2.0350714,-0.93828905,-0.3371976,-0.21013765
1757748445583,5.9041014,-6.1530986,2.2050598,-0.93828905,-0.3371976,-0.21013765
1757748445585,5.9041014,-6.1530986,2.2050598,-1.4306464,-0.43982297,-0.17715092
1757748445603,5.7843914,-7.639898,1.9177556,-1.4306464,-0.43982297,-0.17715092
1757748445604,5.7843914,-7.639898,1.9177556,-1.4355333,-0.5900958,-0.21380283
1757748445622,5.327099,-6.789956,2.0709844,-1.4355333,-0.5900958,-0.21380283
1757748445623,5.327099,-6.789956,2.0709844,-0.8918633,-0.64873886,-0.25778514
1757748445642,5.0254292,-6.2871737,1.8986019,-0.8918633,-0.64873886,-0.25778514
1757748445643,5.0254292,-6.2871737,1.8986019,-0.5815437,-0.7244862,-0.30787608
1757748445663,5.3366756,-5.085284,1.0175357,-0.5815437,-0.7244862,-0.30787608
1757748445664,5.3366756,-5.085284,1.0175357,-0.45081854,-0.7648033,-0.36285394
1757748445680,5.875371,-3.9097314,0.5243302,-0.45081854,-0.7648033,-0.36285394
1757748445682,5.875371,-3.9097314,0.5243302,-0.593761,-0.7367035,-0.35308012
1757748445701,5.5856724,-3.9073372,0.7278373,-0.593761,-0.7367035,-0.35308012
1757748445702,5.5856724,-3.9073372,0.7278373,-0.86742866,-0.689056,-0.31764993
1757748445720,4.4316673,-4.2784386,1.127669,-0.86742866,-0.689056,-0.31764993
1757748445721,4.4316673,-4.2784386,1.127669,-1.0005972,-0.6059783,-0.3359759
1757748445741,3.7924154,-4.596867,0.5482722,-1.0005972,-0.6059783,-0.3359759
1757748445743,3.7924154,-4.596867,0.5482722,-0.6536258,-0.49846604,-0.39461896
1757748445760,3.040636,-3.8714242,0.08619126,-0.6536258,-0.49846604,-0.39461896
1757748445761,3.040636,-3.8714242,0.08619126,0.19181168,-0.34330627,-0.5375614
1757748445782,1.7501614,-1.6998832,-0.37588966,0.19181168,-0.34330627,-0.5375614
1757748445784,1.7501614,-1.6998832,-0.37588966,0.66950834,-0.09773844,-0.6414085
1757748445801,1.079785,-0.90261406,-0.7206547,0.66950834,-0.09773844,-0.6414085
1757748445802,1.079785,-0.90261406,-0.7206547,0.5644395,0.010995574,-0.5571091
1757748445823,0.40222588,-1.541866,-0.92895025,0.5644395,0.010995574,-0.5571091
1757748445825,0.40222588,-1.541866,-0.92895025,0.267559,0.14049901,-0.45814893
1757748445840,0.8523358,-1.8411411,-0.7015011,0.267559,0.14049901,-0.45814893
1757748445842,0.8523358,-1.8411411,-0.7015011,0.062308256,0.23945917,-0.4092797
1757748445863,2.2409728,-1.8387469,0.02633622,0.062308256,0.23945917,-0.4092797
1757748445865,2.2409728,-1.8387469,0.02633622,0.04642576,0.3359759,-0.24801129
1757748445883,3.715801,-3.157952,0.36391866,0.04642576,0.3359759,-0.24801129
1757748445885,3.715801,-3.157952,0.36391866,-0.103847094,0.40194935,-0.056199603
1757748445904,5.78918,-4.96318,0.7254431,-0.103847094,0.40194935,-0.056199603
1757748445905,5.78918,-4.96318,0.7254431,-0.30298916,0.36896262,0.1685988
1757748445923,7.9846625,-7.1993647,0.78769237,-0.30298916,0.36896262,0.1685988
1757748445924,7.9846625,-7.1993647,0.78769237,-0.5558874,0.19058995,0.41538838
1757748445943,10.745177,-12.832921,-0.7589619,-0.5558874,0.19058995,0.41538838
1757748445945,10.745177,-12.832921,-0.7589619,-1.1667526,-0.17959438,0.5143485
1757748445962,10.0748005,-13.101071,-0.58897364,-1.1667526,-0.17959438,0.5143485
1757748445964,10.0748005,-13.101071,-0.58897364,-0.6817256,-0.3213151,0.2321288
1757748445983,8.710106,-9.557653,0.36870706,-0.6817256,-0.3213151,0.2321288
1757748445984,8.710106,-9.557653,0.36870706,0.312763,-0.32620203,-0.081855945
1757748446003,7.2472486,-6.0262055,0.7517793,0.312763,-0.32620203,-0.081855945
1757748446004,7.2472486,-6.0262055,0.7517793,0.8038987,-0.27855456,-0.19547687
1757748446023,5.9184666,-4.072537,0.6727707,0.8038987,-0.27855456,-0.19547687
1757748446025,5.9184666,-4.072537,0.6727707,0.8503244,-0.18692477,-0.19792034
1757748446043,5.8083334,-3.6272156,0.04070143,0.8503244,-0.18692477,-0.19792034
1757748446044,5.8083334,-3.6272156,0.04070143,0.8136725,-0.10873401,-0.12705997
1757748446063,6.4643445,-3.763685,-0.33997664,0.8136725,-0.10873401,-0.12705997
1757748446065,6.4643445,-3.763685,-0.33997664,0.784351,-0.047647487,0.0
1757748446083,6.933608,-4.197036,-0.4237737,0.784351,-0.047647487,0.0
1757748446084,6.933608,-4.197036,-0.4237737,0.6939429,-0.007330383,0.1282817
1757748446103,6.7564373,-4.4484267,-0.6943185,0.6939429,-0.007330383,0.1282817
1757748446105,6.7564373,-4.4484267,-0.6943185,0.3848451,0.0,0.20158553
1757748446123,6.955156,-5.1571107,-1.2306197,0.3848451,0.0,0.20158553
1757748446124,6.955156,-5.1571107,-1.2306197,0.061086524,-0.040317107,0.1563815
1757748446143,7.2568254,-5.183447,-1.1779473,0.061086524,-0.040317107,0.1563815
1757748446144,7.2568254,-5.183447,-1.1779473,-0.21502456,-0.089186326,0.10629055
1757748446162,7.062895,-4.8027687,-0.866701,-0.21502456,-0.089186326,0.10629055
1757748446163,7.062895,-4.8027687,-0.866701,-0.408058,-0.080634214,0.06719518
1757748446183,6.7109475,-4.3766007,-0.39743748,-0.408058,-0.080634214,0.06719518
1757748446184,6.7109475,-4.3766007,-0.39743748,-0.50823987,-0.035430185,0.037873644
1757748446203,6.3422403,-4.132392,0.16280572,-0.50823987,-0.035430185,0.037873644
1757748446204,6.3422403,-4.132392,0.16280572,-0.5546656,0.014660766,0.002443461
1757748446224,5.9759274,-4.4196963,0.45968673,-0.5546656,0.014660766,0.002443461
1757748446226,5.9759274,-4.4196963,0.45968673,-0.5119051,0.028099801,-0.035430185
1757748446243,5.485116,-4.661511,0.4381389,-0.5119051,0.028099801,-0.035430185
1757748446244,5.485116,-4.661511,0.4381389,-0.3213151,-0.007330383,-0.080634214
1757748446264,4.8099513,-4.3526587,0.076614454,-0.3213151,-0.007330383,-0.080634214
1757748446265,4.8099513,-4.3526587,0.076614454,0.014660766,-0.04642576,-0.1282817
1757748446282,3.952827,-3.608062,-0.23942018,0.014660766,-0.04642576,-0.1282817
1757748446284,3.952827,-3.608062,-0.23942018,0.5497787,-0.08552113,-0.20158553
1757748446303,4.3287168,-3.277662,-0.39983168,0.5497787,-0.08552113,-0.20158553
1757748446304,4.3287168,-3.277662,-0.39983168,0.79901177,-0.089186326,-0.21380283
1757748446323,4.7740383,-2.80361,-0.79008657,0.79901177,-0.089186326,-0.21380283
1757748446324,4.7740383,-2.80361,-0.79008657,0.68294734,-0.081855945,-0.20891592
1757748446344,4.735731,-2.6168625,-1.364695,0.68294734,-0.081855945,-0.20891592
1757748446346,4.735731,-2.6168625,-1.364695,0.24556783,-0.028099801,-0.19425514
1757748446363,5.0900726,-2.4396915,-1.400608,0.24556783,-0.028099801,-0.19425514
1757748446364,5.0900726,-2.4396915,-1.400608,-0.24312437,0.11362094,-0.17470746
1757748446384,6.921637,-3.845088,-1.2018893,-0.24312437,0.11362094,-0.17470746
1757748446386,6.921637,-3.845088,-1.2018893,-0.34574974,0.344528,-0.089186326
1757748446404,8.3821,-4.817134,0.110133275,-0.34574974,0.344528,-0.089186326
1757748446405,8.3821,-4.817134,0.110133275,-0.028099801,0.6084218,0.096516706
1757748446423,7.764396,-5.9998693,1.3455414,-0.028099801,0.6084218,0.096516706
1757748446425,7.764396,-5.9998693,1.3455414,0.057421334,0.73792523,0.21380283
1757748446442,6.8162923,-5.9400144,1.4508862,0.057421334,0.73792523,0.21380283
1757748446444,6.8162923,-5.9400144,1.4508862,-0.10995574,0.7244862,0.28344148
1757748446463,6.495469,-6.5840545,-0.17717093,-0.10995574,0.7244862,0.28344148
1757748446465,6.495469,-6.5840545,-0.17717093,-0.5522222,0.6450737,0.15515977
1757748446482,6.9240313,-6.921637,-0.557849,-0.5522222,0.6450737,0.15515977
1757748446484,6.9240313,-6.921637,-0.557849,-0.31887165,0.68416905,0.09773844
1757748446505,7.536947,-6.9120603,0.40940848,-0.31887165,0.68416905,0.09773844
1757748446506,7.536947,-6.9120603,0.40940848,0.034208454,0.70005155,0.13927728
1757748446520,7.395689,-6.622362,0.6967127,0.034208454,0.70005155,0.13927728
1757748446522,7.395689,-6.622362,0.6967127,0.10995574,0.6743952,0.21624629
1757748446544,7.3669586,-6.4978633,0.50757074,0.10995574,0.6743952,0.21624629
1757748446545,7.3669586,-6.4978633,0.50757074,-0.081855945,0.6010914,0.27488935
