timestamp,ax,ay,az,gx,gy,gz
1757142372470,0.46447513,4.807557,10.18254,0.0,0.0,0.0
1757142372470,0.46447513,4.807557,10.18254,-0.012217305,0.028099801,-0.007330383
1757142372565,-0.81163436,5.2265425,9.514558,-0.012217305,0.028099801,-0.007330383
1757142372566,-0.81163436,5.2265425,9.514558,-0.062308256,-0.40683624,-1.6566665
1757142372596,-1.1252748,3.739743,8.853758,-0.062308256,-0.40683624,-1.6566665
1757142372597,-1.1252748,3.739743,8.853758,0.8136725,-0.6377433,-1.7263051
1757142372643,-0.8451532,4.2185836,8.9279785,0.8136725,-0.6377433,-1.7263051
1757142372644,-0.8451532,4.2185836,8.9279785,0.7855727,-0.6963864,-1.4575244
1757142372704,-0.20590134,4.817134,8.123527,0.7855727,-0.6963864,-1.4575244
1757142372704,-0.20590134,4.817134,8.123527,-0.059864793,-0.8784242,-1.6175711
1757142372766,0.088585466,4.51307,8.123527,-0.059864793,-0.8784242,-1.6175711
1757142372766,0.088585466,4.51307,8.123527,-0.047647487,-1.0054842,-1.7959439
1757142372826,0.088585466,4.5992613,7.728483,-0.047647487,-1.0054842,-1.7959439
1757142372826,0.088585466,4.5992613,7.728483,-0.087964594,-1.097114,-1.7629571
1757142372888,-0.5315128,4.158728,7.955932,-0.087964594,-1.097114,-1.7629571
1757142372888,-0.5315128,4.158728,7.955932,-0.31764993,-1.0531317,-1.6652187
1757142372948,-0.56982,4.0701427,8.286332,-0.31764993,-1.0531317,-1.6652187
1757142372948,-0.56982,4.0701427,8.286332,-0.50701815,-0.94806284,-1.5760323
1757142373008,-1.352724,3.1268275,8.429984,-0.50701815,-0.94806284,-1.5760323
1757142373008,-1.352724,3.1268275,8.429984,-0.23457226,-0.73548174,-1.7006488
1757142373067,-1.8770541,3.347094,7.563283,-0.23457226,-0.73548174,-1.7006488
1757142373068,-1.8770541,3.347094,7.563283,-0.40439278,-0.8014552,-1.78617
1757142373127,-1.757344,3.608062,8.453926,-0.40439278,-0.8014552,-1.78617
1757142373128,-1.757344,3.608062,8.453926,-0.42638394,-0.5693264,-1.8008307
1757142373187,-1.3790601,2.5210943,9.866506,-0.42638394,-0.5693264,-1.8008307
1757142373189,-1.3790601,2.5210943,9.866506,0.15393804,-0.059864793,-1.3292428
1757142373248,-1.1611878,3.4117374,9.962274,0.15393804,-0.059864793,-1.3292428
1757142373249,-1.1611878,3.4117374,9.962274,0.81489426,0.12339478,-1.1728612
1757142373309,-1.7597382,3.0813377,10.548853,0.81489426,0.12339478,-1.1728612
1757142373310,-1.7597382,3.0813377,10.548853,0.007330383,-0.13439035,-0.9236283
1757142373368,-1.5490485,3.4572272,8.7532015,0.007330383,-0.13439035,-0.9236283
1757142373369,-1.5490485,3.4572272,8.7532015,-0.112399206,-0.31887165,-0.77213365
1757142373426,-1.0702082,2.4756045,7.747637,-0.112399206,-0.31887165,-0.77213365
1757142373428,-1.0702082,2.4756045,7.747637,-0.80878556,-0.46181414,-0.625526
1757142373489,-0.6727707,0.533907,8.480263,-0.80878556,-0.46181414,-0.625526
1757142373490,-0.6727707,0.533907,8.480263,-0.7415904,-0.3005457,-0.36651915
1757142373549,-1.8650831,-0.6536171,9.095572,-0.7415904,-0.3005457,-0.36651915
1757142373552,-1.8650831,-0.6536171,9.095572,-1.5906931,-0.42638394,-0.25534168
1757142373608,-1.4532804,-2.5833437,10.316615,-1.5906931,-0.42638394,-0.25534168
1757142373610,-1.4532804,-2.5833437,10.316615,-3.6053267,-0.9334021,-0.25411993
1757142373668,2.6910827,-7.129933,13.488933,-3.6053267,-0.9334021,-0.25411993
1757142373670,2.6910827,-7.129933,13.488933,-5.530774,-1.5796975,-0.74281216
1757142373728,5.6000376,-8.973468,11.413159,-5.530774,-1.5796975,-0.74281216
1757142373730,5.6000376,-8.973468,11.413159,-5.753129,-1.4416419,-2.5802948
1757142373787,3.3901896,-9.586384,9.715671,-5.753129,-1.4416419,-2.5802948
1757142373789,3.3901896,-9.586384,9.715671,-5.191133,0.0,-4.0268235
1757142373849,1.1492168,-8.291121,7.2568254,-5.191133,0.0,-4.0268235
1757142373852,1.1492168,-8.291121,7.2568254,-3.9413025,1.5968018,-4.1270056
1757142373908,0.5722142,-7.85777,6.5265937,-3.9413025,1.5968018,-4.1270056
1757142373910,0.5722142,-7.85777,6.5265937,-3.602883,2.2675319,-2.9944615
1757142373968,1.99437,-7.678205,4.525041,-3.602883,2.2675319,-2.9944615
1757142373970,1.99437,-7.678205,4.525041,-2.7281241,2.4055874,-1.8863518
1757142374027,4.0797195,-7.5201874,3.1052797,-2.7281241,2.4055874,-1.8863518
1757142374029,4.0797195,-7.5201874,3.1052797,-1.9755383,2.1526892,-1.3988814
1757142374085,5.281609,-6.7731967,2.1883004,-1.9755383,2.1526892,-1.3988814
1757142374087,5.281609,-6.7731967,2.1883004,-1.4575244,2.008525,-1.3060299
1757142374148,5.566519,-6.751649,2.9520507,-1.4575244,2.008525,-1.3060299
1757142374150,5.566519,-6.751649,2.9520507,-0.64996064,1.8619173,-1.2144
1757142374208,4.960786,-6.0501475,3.715801,-0.64996064,1.8619173,-1.2144
1757142374210,4.960786,-6.0501475,3.715801,-0.65484756,1.4575244,-0.58032197
1757142374268,5.583278,-3.335123,5.5162406,-0.65484756,1.4575244,-0.58032197
1757142374270,5.583278,-3.335123,5.5162406,0.16493362,1.6762142,-0.24801129
1757142374329,7.275979,-5.5138464,4.3646297,0.16493362,1.6762142,-0.24801129
1757142374331,7.275979,-5.5138464,4.3646297,-0.21380283,0.6939429,0.20280726
1757142374389,6.217742,-4.6399627,4.2425256,-0.21380283,0.6939429,0.20280726
1757142374391,6.217742,-4.6399627,4.2425256,0.9505063,0.6401868,0.03176499
1757142374450,5.6431336,-4.6710877,5.085284,0.9505063,0.6401868,0.03176499
1757142374454,5.6431336,-4.6710877,5.085284,0.5204572,0.25167647,0.22357668
1757142374510,4.084508,-3.9360676,5.1906295,0.5204572,0.25167647,0.22357668
1757142374512,4.084508,-3.9360676,5.1906295,0.43249258,0.089186326,0.028099801
1757142374569,3.655946,-4.4436383,4.5154643,0.43249258,0.089186326,0.028099801
1757142374571,3.655946,-4.4436383,4.5154643,0.71837753,0.09407325,0.029321533
1757142374630,4.2640734,-2.9257145,4.7979803,0.71837753,0.09407325,0.029321533
1757142374632,4.2640734,-2.9257145,4.7979803,1.6187929,0.20158553,-0.40194935
1757142374693,4.4723687,-3.526659,3.7684734,1.6187929,0.20158553,-0.40194935
1757142374696,4.4723687,-3.526659,3.7684734,0.32742378,0.14538592,-0.080634214
1757142374749,4.1156325,-4.817134,4.55856,0.32742378,0.14538592,-0.080634214
1757142374751,4.1156325,-4.817134,4.55856,0.267559,0.4288274,0.02321288
1757142374808,3.916914,-4.1252093,5.4899044,0.267559,0.4288274,0.02321288
1757142374811,3.916914,-4.1252093,5.4899044,-0.02076942,0.48380527,-0.11484267
1757142374869,3.9600096,-1.8339585,5.3223104,-0.02076942,0.48380527,-0.11484267
1757142374872,3.9600096,-1.8339585,5.3223104,1.8668042,0.766025,-0.07696902
1757142374929,5.00867,-4.015076,5.3103395,1.8668042,0.766025,-0.07696902
1757142374931,5.00867,-4.015076,5.3103395,-0.6206391,0.2565634,0.0
1757142374985,5.121197,-4.1252093,6.8641763,-0.6206391,0.2565634,0.0
1757142374986,5.121197,-4.1252093,6.8641763,-0.5216789,0.25778514,-0.035430185
1757142375048,5.3199162,-5.0014873,7.4866686,-0.5216789,0.25778514,-0.035430185
1757142375049,5.3199162,-5.0014873,7.4866686,-0.657291,0.14294247,-0.036651913
1757142375110,5.195418,-5.351041,8.207323,-0.657291,0.14294247,-0.036651913
1757142375112,5.195418,-5.351041,8.207323,-0.26633725,-0.09285152,-0.10995574
1757142375169,4.7165775,-2.2290018,8.133103,-0.26633725,-0.09285152,-0.10995574
1757142375172,4.7165775,-2.2290018,8.133103,0.8002335,0.037873644,-0.02565634
1757142375230,6.0118403,-5.4420204,7.642292,0.8002335,0.037873644,-0.02565634
1757142375232,6.0118403,-5.4420204,7.642292,0.43004912,0.0,0.004886922
1757142375289,7.038953,-5.437232,9.349358,0.43004912,0.0,0.004886922
1757142375291,7.038953,-5.437232,9.349358,-0.17592919,0.15027285,-0.10262536
1757142375349,8.317456,-6.7348895,11.647791,-0.17592919,0.15027285,-0.10262536
1757142375352,8.317456,-6.7348895,11.647791,0.034208454,0.05131268,-0.05497787
1757142375410,9.030929,-6.7684083,12.753913,0.034208454,0.05131268,-0.05497787
1757142375412,9.030929,-6.7684083,12.753913,-0.013439035,0.112399206,-0.037873644
1757142375470,8.027759,-7.019799,13.215993,-0.013439035,0.112399206,-0.037873644
1757142375472,8.027759,-7.019799,13.215993,-0.1563815,0.2846632,0.037873644
1757142375529,6.9288197,-5.449203,10.620679,-0.1563815,0.2846632,0.037873644
1757142375531,6.9288197,-5.449203,10.620679,0.14905111,0.16982053,0.02321288
1757142375590,6.823475,-5.6551046,8.724471,0.14905111,0.16982053,0.02321288
1757142375592,6.823475,-5.6551046,8.724471,0.14538592,0.073303826,0.0
1757142375649,5.827487,-5.3606176,8.403648,0.14538592,0.073303826,0.0
1757142375653,5.827487,-5.3606176,8.403648,-0.034208454,-0.036651913,-0.039095376
1757142375710,5.437232,-5.329493,8.288726,-0.034208454,-0.036651913,-0.039095376
1757142375714,5.437232,-5.329493,8.288726,-0.21135938,-0.036651913,0.034208454
1757142375770,4.793192,-5.5856724,7.821857,-0.21135938,-0.036651913,0.034208454
1757142375773,4.793192,-5.5856724,7.821857,0.034208454,-0.1685988,0.14905111
1757142375830,6.0836663,-5.1355624,6.682217,0.034208454,-0.1685988,0.14905111
1757142375833,6.0836663,-5.1355624,6.682217,-0.30787608,-0.40317106,0.16737708
1757142375890,5.351041,-5.861006,7.201759,-0.30787608,-0.40317106,0.16737708
1757142375892,5.351041,-5.861006,7.201759,-0.27977628,-0.03176499,0.1282817
1757142375950,4.7309427,-5.315128,7.6829934,-0.27977628,-0.03176499,0.1282817
1757142375953,4.7309427,-5.315128,7.6829934,-0.30543262,0.21868975,-0.03176499
1757142376009,3.9983168,-3.514688,6.6654577,-0.30543262,0.21868975,-0.03176499
1757142376011,3.9983168,-3.514688,6.6654577,-0.18936823,0.13561209,-0.014660766
1757142376069,3.2202013,-3.6607344,4.9895163,-0.18936823,0.13561209,-0.014660766
1757142376071,3.2202013,-3.6607344,4.9895163,-0.38362336,0.13683382,0.105068825
1757142376129,2.731784,-3.1507695,4.010288,-0.38362336,0.13683382,0.105068825
1757142376131,2.731784,-3.1507695,4.010288,-0.2761111,0.1685988,-0.14782938
1757142376190,2.0757728,-2.6264393,3.8881836,-0.2761111,0.1685988,-0.14782938
1757142376193,2.0757728,-2.6264393,3.8881836,-0.10140363,0.45081854,0.12705997
1757142376250,2.1811178,-2.5378537,4.19943,-0.10140363,0.45081854,0.12705997
1757142376252,2.1811178,-2.5378537,4.19943,0.44715336,0.3885103,-0.12461651
1757142376310,2.3678656,-2.4851813,5.17387,0.44715336,0.3885103,-0.12461651
1757142376312,2.3678656,-2.4851813,5.17387,0.5375614,0.36285394,-0.04153884
1757142376370,3.4524388,-3.5051112,7.225701,0.5375614,0.36285394,-0.04153884
1757142376372,3.4524388,-3.5051112,7.225701,0.36163223,0.13072516,0.09285152
1757142376432,4.27365,-4.4340615,8.554482,0.36163223,0.13072516,0.09285152
1757142376434,4.27365,-4.4340615,8.554482,-0.40439278,-0.4813618,0.057421334
1757142376490,4.4819455,-4.158728,7.517793,-0.40439278,-0.4813618,0.057421334
1757142376493,4.4819455,-4.158728,7.517793,-0.05009095,-0.25045475,0.0036651916
1757142376550,4.4101195,-3.8833952,7.4244194,-0.05009095,-0.25045475,0.0036651916
1757142376552,4.4101195,-3.8833952,7.4244194,0.02076942,0.015882496,0.04642576
1757142376610,4.086902,-4.110844,7.1466923,0.02076942,0.015882496,0.04642576
1757142376613,4.086902,-4.110844,7.1466923,-0.19303341,-0.18448131,0.004886922
1757142376670,3.8043866,-3.4835634,6.7013707,-0.19303341,-0.18448131,0.004886922
1757142376673,3.8043866,-3.4835634,6.7013707,-0.24923302,-0.15393804,-0.03176499
1757142376732,3.6942532,-3.3901896,6.2943563,-0.24923302,-0.15393804,-0.03176499
1757142376734,3.6942532,-3.3901896,6.2943563,-0.32986724,-0.2761111,-0.042760566
1757142376790,3.1866825,-3.0885203,4.8841715,-0.32986724,-0.2761111,-0.042760566
1757142376793,3.1866825,-3.0885203,4.8841715,-0.16737708,-0.18203785,-0.12217305
1757142376850,2.7724855,-3.0789435,3.9839516,-0.16737708,-0.18203785,-0.12217305
1757142376853,2.7724855,-3.0789435,3.9839516,0.1441642,-0.004886922,-0.14782938
1757142376909,3.4859576,-3.526659,4.3646297,0.1441642,-0.004886922,-0.14782938
1757142376912,3.4859576,-3.526659,4.3646297,0.105068825,-0.010995574,-0.111177474
1757142376971,3.289633,-4.134786,5.4563856,0.105068825,-0.010995574,-0.111177474
1757142376973,3.289633,-4.134786,5.4563856,0.09040806,0.111177474,-0.07819075
1757142377030,3.763685,-3.8833952,6.0860605,0.09040806,0.111177474,-0.07819075
1757142377032,3.763685,-3.8833952,6.0860605,-0.0012217305,0.1966986,-0.019547688
1757142377091,4.0557775,-4.3287168,6.588843,-0.0012217305,0.1966986,-0.019547688
1757142377093,4.0557775,-4.3287168,6.588843,0.31031954,0.21013765,0.09896017
1757142377150,4.441244,-5.0757074,7.28795,0.31031954,0.21013765,0.09896017
1757142377152,4.441244,-5.0757074,7.28795,-0.10262536,-0.061086524,0.08674286
1757142377210,4.9105077,-5.1235914,7.455544,-0.10262536,-0.061086524,0.08674286
1757142377212,4.9105077,-5.1235914,7.455544,0.27366763,-0.19303341,0.032986723
1757142377270,5.4204726,-5.5856724,7.8793178,0.27366763,-0.19303341,0.032986723
1757142377273,5.4204726,-5.5856724,7.8793178,-0.23823744,-0.14049901,0.05375614
1757142377330,5.590461,-5.805939,8.90643,-0.23823744,-0.14049901,0.05375614
1757142377332,5.590461,-5.805939,8.90643,0.22113322,-0.12095132,0.012217305
1757142377390,5.8921304,-6.775591,9.251195,0.22113322,-0.12095132,0.012217305
1757142377392,5.8921304,-6.775591,9.251195,-0.20647246,-0.12705997,0.004886922
1757142377452,7.3765354,-6.38773,10.225636,-0.20647246,-0.12705997,0.004886922
1757142377454,7.3765354,-6.38773,10.225636,-0.12950343,-0.18936823,-0.11484267
1757142377510,8.736442,-8.073248,11.425131,-0.12950343,-0.18936823,-0.11484267
1757142377512,8.736442,-8.073248,11.425131,0.09896017,-0.14782938,-0.111177474
1757142377570,8.135497,-8.078036,12.121843,0.09896017,-0.14782938,-0.111177474
1757142377572,8.135497,-8.078036,12.121843,-0.6976081,0.035430185,-0.018325957
1757142377631,7.0006456,-6.8210807,10.742783,-0.6976081,0.035430185,-0.018325957
1757142377633,7.0006456,-6.8210807,10.742783,0.19792034,0.002443461,-0.04153884
1757142377690,6.8761473,-6.3063273,8.540117,0.19792034,0.002443461,-0.04153884
1757142377693,6.8761473,-6.3063273,8.540117,0.23457226,-0.21502456,0.10262536
1757142377751,5.851429,-6.9240313,7.383718,0.23457226,-0.21502456,0.10262536
1757142377753,5.851429,-6.9240313,7.383718,0.032986723,-0.94806284,0.017104227
1757142377810,5.8801594,-6.4763155,5.4204726,0.032986723,-0.94806284,0.017104227
1757142377813,5.8801594,-6.4763155,5.4204726,-0.15515977,-0.6585127,0.089186326
1757142377870,7.7428484,-5.116409,6.766014,-0.15515977,-0.6585127,0.089186326
1757142377872,7.7428484,-5.116409,6.766014,-0.081855945,0.25167647,0.1685988
1757142377932,6.921637,-5.6407394,7.702147,-0.081855945,0.25167647,0.1685988
1757142377936,6.921637,-5.6407394,7.702147,0.2284636,0.23579398,0.12583824
1757142377991,6.4882865,-6.0645127,7.2687964,0.2284636,0.23579398,0.12583824
1757142377993,6.4882865,-6.0645127,7.2687964,0.17104226,-0.119729586,-0.1563815
1757142378052,5.2002063,-5.5162406,5.374983,0.17104226,-0.119729586,-0.1563815
1757142378054,5.2002063,-5.5162406,5.374983,0.10873401,0.32375857,-0.12583824
1757142378112,3.5913026,-4.3263226,6.471527,0.10873401,0.32375857,-0.12583824
1757142378113,3.5913026,-4.3263226,6.471527,-0.49602258,0.46792278,-0.04886922
1757142378170,3.5482068,-3.9576154,5.681441,-0.49602258,0.46792278,-0.04886922
1757142378172,3.5482068,-3.9576154,5.681441,0.059864793,0.21868975,0.007330383
1757142378230,3.4620156,-2.920926,3.845088,0.059864793,0.21868975,0.007330383
1757142378232,3.4620156,-2.920926,3.845088,-0.36041048,0.032986723,-0.29443705
1757142378289,2.2625206,-2.480393,3.4356794,-0.36041048,0.032986723,-0.29443705
1757142378292,2.2625206,-2.480393,3.4356794,0.17104226,0.34697145,-0.04520403
1757142378352,2.0135236,-2.6192567,3.9384618,0.17104226,0.34697145,-0.04520403
1757142378355,2.0135236,-2.6192567,3.9384618,0.22479841,0.43982297,-0.013439035
1757142378412,2.8323407,-2.480393,5.1906295,0.22479841,0.43982297,-0.013439035
1757142378413,2.8323407,-2.480393,5.1906295,0.6047566,0.453262,0.013439035
1757142378471,4.2185836,-3.7804444,7.0940194,0.6047566,0.453262,0.013439035
1757142378473,4.2185836,-3.7804444,7.0940194,0.16249016,0.15393804,0.0720821
1757142378530,4.900931,-4.4819455,8.429984,0.16249016,0.15393804,0.0720821
1757142378533,4.900931,-4.4819455,8.429984,-0.26511553,-0.33475417,-0.04642576
1757142378590,5.046977,-4.3766007,7.539341,-0.26511553,-0.33475417,-0.04642576
1757142378593,5.046977,-4.3766007,7.539341,0.21868975,-0.103847094,-0.037873644
1757142378652,4.7381253,-3.8379054,7.144298,0.21868975,-0.103847094,-0.037873644
1757142378654,4.7381253,-3.8379054,7.144298,0.105068825,-0.010995574,-0.02565634
1757142378710,4.1012673,-3.5625722,6.9264255,0.105068825,-0.010995574,-0.02565634
1757142378712,4.1012673,-3.5625722,6.9264255,-0.17837265,-0.37384954,-0.042760566
1757142378770,4.122815,-3.6296098,6.849811,-0.17837265,-0.37384954,-0.042760566
1757142378775,4.122815,-3.6296098,6.849811,-0.44226643,-0.61453044,0.08307768
1757142378831,4.297592,-3.632004,6.337452,-0.44226643,-0.61453044,0.08307768
1757142378833,4.297592,-3.632004,6.337452,-0.68416905,-0.9407325,0.087964594
1757142378891,3.620033,-2.8993783,4.6160207,-0.68416905,-0.9407325,0.087964594
1757142378893,3.620033,-2.8993783,4.6160207,-0.8784242,-1.4391985,0.13439035
1757142378952,3.5051112,-4.187459,2.2026656,-0.8784242,-1.4391985,0.13439035
1757142378954,3.5051112,-4.187459,2.2026656,-1.3011429,-1.6945401,0.33475417
1757142379011,4.462792,-4.546589,0.24660277,-1.3011429,-1.6945401,0.33475417
1757142379013,4.462792,-4.546589,0.24660277,-1.9926424,-1.7128662,0.2687807
1757142379070,3.763685,-2.5498247,1.745373,-1.9926424,-1.7128662,0.2687807
1757142379072,3.763685,-2.5498247,1.745373,0.052534413,-1.0763446,0.089186326
1757142379131,5.159505,-5.485116,1.970428,0.052534413,-1.0763446,0.089186326
1757142379133,5.159505,-5.485116,1.970428,0.009773844,-1.1936307,0.089186326
1757142379190,6.7372837,-4.984728,1.7501614,0.009773844,-1.1936307,0.089186326
1757142379194,6.7372837,-4.984728,1.7501614,0.15882497,-0.90408057,0.4728097
1757142379252,8.037335,-6.823475,1.1731589,0.15882497,-0.90408057,0.4728097
1757142379254,8.037335,-6.823475,1.1731589,-0.8038987,-0.38606682,0.56321776
1757142379311,8.252813,-8.595184,1.9991584,-0.8038987,-0.38606682,0.56321776
1757142379313,8.252813,-8.595184,1.9991584,0.057421334,0.2687807,-0.06719518
1757142379371,7.632715,-7.3430166,2.9281087,0.057421334,0.2687807,-0.06719518
1757142379373,7.632715,-7.3430166,2.9281087,-0.040317107,0.44226643,-0.4605924
1757142379431,10.043676,-9.306262,2.1739352,-0.040317107,0.44226643,-0.4605924
1757142379433,10.043676,-9.306262,2.1739352,0.4129449,0.56077427,-0.49357912
1757142379492,9.169792,-9.634268,3.787627,0.4129449,0.56077427,-0.49357912
1757142379494,9.169792,-9.634268,3.787627,-0.09896017,0.7122689,-0.52778757
1757142379552,9.634268,-8.746018,4.841076,-0.09896017,0.7122689,-0.52778757
1757142379554,9.634268,-8.746018,4.841076,0.6768387,0.8258898,-0.41538838
1757142379611,10.986992,-8.544906,3.5314474,0.6768387,0.8258898,-0.41538838
1757142379614,10.986992,-8.544906,3.5314474,-1.0274754,0.50946164,-0.17104226
1757142379671,10.776301,-8.470686,4.0174704,-1.0274754,0.50946164,-0.17104226
1757142379673,10.776301,-8.470686,4.0174704,-0.51923543,0.6780604,-0.10140363
1757142379732,10.125079,-8.307879,2.7030537,-0.51923543,0.6780604,-0.10140363
1757142379733,10.125079,-8.307879,2.7030537,-0.7012733,0.4129449,0.04886922
1757142379791,9.234436,-8.4587145,4.369418,-0.7012733,0.4129449,0.04886922
1757142379793,9.234436,-8.4587145,4.369418,-0.0036651916,0.3494149,-0.09407325
1757142379852,8.731653,-8.300697,3.7349546,-0.0036651916,0.3494149,-0.09407325
1757142379854,8.731653,-8.300697,3.7349546,-0.19181168,0.35185838,-0.11728613
1757142379911,8.0445175,-7.764396,4.096479,-0.19181168,0.35185838,-0.11728613
1757142379913,8.0445175,-7.764396,4.096479,-0.13683382,0.2321288,-0.017104227
1757142379972,8.070854,-7.8027034,3.098097,-0.13683382,0.2321288,-0.017104227
1757142379975,8.070854,-7.8027034,3.098097,0.28099802,0.043982297,-0.18203785
1757142380032,6.813898,-5.959168,2.8634653,0.28099802,0.043982297,-0.18203785
1757142380034,6.813898,-5.959168,2.8634653,-0.7819075,-0.27488935,-0.16371189
1757142380091,7.73806,-7.189788,1.2114661,-0.7819075,-0.27488935,-0.16371189
1757142380093,7.73806,-7.189788,1.2114661,-0.593761,-0.64873886,-0.13927728
1757142380153,7.261614,-6.143522,2.030283,-0.593761,-0.64873886,-0.13927728
1757142380155,7.261614,-6.143522,2.030283,-0.103847094,-0.54000485,-0.21991149
1757142380212,7.7452426,-6.397307,2.669535,-0.103847094,-0.54000485,-0.21991149
1757142380214,7.7452426,-6.397307,2.669535,0.042760566,-0.3933972,-0.07696902
1757142380272,7.1706343,-7.2831616,2.5570073,0.042760566,-0.3933972,-0.07696902
1757142380273,7.1706343,-7.2831616,2.5570073,0.43004912,-0.26511553,-0.14049901
1757142380332,6.411672,-4.450821,1.1899183,0.43004912,-0.26511553,-0.14049901
1757142380333,6.411672,-4.450821,1.1899183,0.44348818,-0.0720821,-0.16615535
1757142380392,4.9464207,-4.2401314,1.4389153,0.44348818,-0.0720821,-0.16615535
1757142380394,4.9464207,-4.2401314,1.4389153,0.6401868,0.22724187,-0.10140363
1757142380453,3.6966474,-2.554613,0.8858546,0.6401868,0.22724187,-0.10140363
1757142380456,3.6966474,-2.554613,0.8858546,0.036651913,0.25534168,-0.10140363
1757142380512,3.028665,-3.095703,0.9696517,0.036651913,0.25534168,-0.10140363
1757142380514,3.028665,-3.095703,0.9696517,0.31520647,0.26389378,-0.13439035
1757142380572,4.1419687,-2.89459,1.9369092,0.31520647,0.26389378,-0.13439035
1757142380574,4.1419687,-2.89459,1.9369092,0.7440339,0.32986724,-0.13316862
1757142380632,8.137892,-4.8267107,3.9743748,0.7440339,0.32986724,-0.13316862
1757142380633,8.137892,-4.8267107,3.9743748,-0.8503244,-0.13072516,0.2602286
1757142380692,8.963891,-8.671799,4.8362875,-0.8503244,-0.13072516,0.2602286
1757142380694,8.963891,-8.671799,4.8362875,0.13316862,-0.035430185,0.018325957
1757142380752,7.1754227,-4.4460325,3.107674,0.13316862,-0.035430185,0.018325957
1757142380754,7.1754227,-4.4460325,3.107674,0.9859365,0.23090707,-0.043982297
1757142380812,6.9982514,-4.4364557,2.743755,0.9859365,0.23090707,-0.043982297
1757142380814,6.9982514,-4.4364557,2.743755,0.46792278,0.34208453,0.042760566
1757142380874,7.630321,-4.975151,3.5889084,0.46792278,0.34208453,0.042760566
1757142380876,7.630321,-4.975151,3.5889084,-0.25289822,0.040317107,0.07696902
1757142380932,7.5321584,-5.1020436,3.9863458,-0.25289822,0.040317107,0.07696902
1757142380935,7.5321584,-5.1020436,3.9863458,-0.061086524,-0.11484267,-0.029321533
1757142380993,7.2807674,-5.159505,3.8642416,-0.061086524,-0.11484267,-0.029321533
1757142380996,7.2807674,-5.159505,3.8642416,-0.02687807,-0.06963864,-0.04153884
1757142381053,7.0964136,-5.058948,3.5529952,-0.02687807,-0.06963864,-0.04153884
1757142381056,7.0964136,-5.058948,3.5529952,0.14172074,-0.13316862,-0.07452556
1757142381114,6.3182983,-4.4699745,3.323152,0.14172074,-0.13316862,-0.07452556
1757142381117,6.3182983,-4.4699745,3.323152,-0.23335053,-0.49602258,-0.004886922
1757142381173,5.614403,-3.857059,3.3063924,-0.23335053,-0.49602258,-0.004886922
1757142381175,5.614403,-3.857059,3.3063924,-0.11362094,-0.5888741,0.02076942
1757142381233,5.0517654,-3.9432502,2.8395233,-0.11362094,-0.5888741,0.02076942
1757142381235,5.0517654,-3.9432502,2.8395233,0.14660765,-0.3933972,0.04886922
1757142381293,5.494693,-3.0382419,2.56419,0.14660765,-0.3933972,0.04886922
1757142381296,5.494693,-3.0382419,2.56419,0.49602258,-0.14538592,0.05009095
1757142381353,5.415684,-4.024653,1.9967642,0.49602258,-0.14538592,0.05009095
1757142381357,5.415684,-4.024653,1.9967642,0.6743952,0.23090707,-0.030543262
1757142381414,6.1243677,-4.110844,2.5306711,0.6743952,0.23090707,-0.030543262
1757142381416,6.1243677,-4.110844,2.5306711,0.675617,0.56321776,-0.16493362
1757142381474,6.179435,-3.3662477,2.956839,0.675617,0.56321776,-0.16493362
1757142381476,6.179435,-3.3662477,2.956839,0.35185838,0.5864306,-0.17592919
1757142381532,6.871359,-4.3239284,3.1196449,0.35185838,0.5864306,-0.17592919
1757142381534,6.871359,-4.3239284,3.1196449,-0.0036651916,0.41538838,-0.035430185
1757142381593,5.9400144,-3.8881836,2.5258827,-0.0036651916,0.41538838,-0.035430185
1757142381596,5.9400144,-3.8881836,2.5258827,-1.3475688,0.1563815,0.3811799
1757142381653,7.917625,-7.797915,2.3750482,-1.3475688,0.1563815,0.3811799
1757142381655,7.917625,-7.797915,2.3750482,-2.1587977,-0.15149458,0.40439278
1757142381713,7.762002,-6.76362,3.7780502,-2.1587977,-0.15149458,0.40439278
1757142381715,7.762002,-6.76362,3.7780502,0.14538592,0.2724459,0.12217305
1757142381773,9.136273,-6.7684083,3.8642416,0.14538592,0.2724459,0.12217305
1757142381776,9.136273,-6.7684083,3.8642416,0.49357912,0.24923302,0.12950343
1757142381838,8.880095,-7.867347,3.9576154,0.49357912,0.24923302,0.12950343
1757142381841,8.880095,-7.867347,3.9576154,0.2883284,0.19181168,0.15515977
1757142381894,9.651027,-8.734048,6.4164605,0.2883284,0.19181168,0.15515977
1757142381896,9.651027,-8.734048,6.4164605,0.13072516,0.14905111,0.10140363
1757142381954,11.161768,-10.09156,5.3342814,0.13072516,0.14905111,0.10140363
1757142381957,11.161768,-10.09156,5.3342814,0.0720821,-0.10995574,0.0012217305
1757142382014,11.880029,-9.153033,5.329493,0.0720821,-0.10995574,0.0012217305
1757142382017,11.880029,-9.153033,5.329493,-0.32375857,0.028099801,-0.057421334
1757142382075,9.466674,-8.396465,6.0022635,-0.32375857,0.028099801,-0.057421334
1757142382077,9.466674,-8.396465,6.0022635,0.118507855,0.3213151,-0.16493362
1757142382129,8.9279785,-7.57286,4.699818,0.118507855,0.3213151,-0.16493362
1757142382130,8.9279785,-7.57286,4.699818,-0.089186326,-0.008552114,-0.10140363
1757142382191,8.599973,-7.03177,3.7014358,-0.089186326,-0.008552114,-0.10140363
1757142382192,8.599973,-7.03177,3.7014358,-0.20280726,-0.18081611,-0.112399206
1757142382252,9.112331,-8.118738,3.7062242,-0.20280726,-0.18081611,-0.112399206
1757142382254,9.112331,-8.118738,3.7062242,0.03176499,-0.014660766,-0.1881465
1757142382313,7.6853876,-6.4763155,3.916914,0.03176499,-0.014660766,-0.1881465
1757142382316,7.6853876,-6.4763155,3.916914,0.2932153,-0.02321288,-0.04642576
1757142382374,8.250419,-7.2065473,2.3175871,0.2932153,-0.02321288,-0.04642576
1757142382376,8.250419,-7.2065473,2.3175871,-0.4288274,-0.39461896,0.15515977
1757142382435,6.7731967,-5.9902925,1.8986019,-0.4288274,-0.39461896,0.15515977
1757142382437,6.7731967,-5.9902925,1.8986019,-0.2284636,-0.49968776,0.02321288
1757142382495,8.461109,-5.0278234,2.468422,-0.2284636,-0.49968776,0.02321288
1757142382497,8.461109,-5.0278234,2.468422,-0.5131268,-0.5852089,0.1441642
1757142382554,6.5146227,-6.4404025,3.9456444,-0.5131268,-0.5852089,0.1441642
1757142382556,6.5146227,-6.4404025,3.9456444,-0.71959925,-0.49480084,-0.056199603
1757142382614,5.106832,-6.5002575,3.6128504,-0.71959925,-0.49480084,-0.056199603
1757142382616,5.106832,-6.5002575,3.6128504,-0.8723156,-1.097114,-0.09773844
1757142382674,6.14831,-4.972757,1.3742718,-0.8723156,-1.097114,-0.09773844
1757142382678,6.14831,-4.972757,1.3742718,0.5656612,-0.86254174,-0.1441642
1757142382733,4.402937,-3.2680852,0.93134445,0.5656612,-0.86254174,-0.1441642
1757142382734,4.402937,-3.2680852,0.93134445,0.63285637,-0.2565634,-0.037873644
1757142382794,2.9233203,-2.4013844,1.0079589,0.63285637,-0.2565634,-0.037873644
1757142382796,2.9233203,-2.4013844,1.0079589,0.6780604,0.42271876,0.05009095
1757142382854,3.4715924,-2.4133554,1.1779473,0.6780604,0.42271876,0.05009095
1757142382856,3.4715924,-2.4133554,1.1779473,0.20647246,0.6780604,0.13072516
1757142382914,7.1059904,-4.6806645,2.1906946,0.20647246,0.6780604,0.13072516
1757142382917,7.1059904,-4.6806645,2.1906946,-0.267559,0.37507126,0.23335053
1757142382974,9.267955,-9.334992,3.383007,-0.267559,0.37507126,0.23335053
1757142382976,9.267955,-9.334992,3.383007,-1.2388347,-0.64873886,0.07452556
1757142383035,6.6056023,-5.5258174,2.5953147,-1.2388347,-0.64873886,0.07452556
1757142383037,6.6056023,-5.5258174,2.5953147,1.4538593,0.02565634,-0.3921755
1757142383093,6.945579,-4.197036,2.3391352,1.4538593,0.02565634,-0.3921755
1757142383095,6.945579,-4.197036,2.3391352,0.1966986,0.064751714,0.037873644
1757142383151,7.85777,-5.947197,2.3343468,0.1966986,0.064751714,0.037873644
1757142383151,7.85777,-5.947197,2.3343468,0.073303826,0.07574729,0.061086524
1757142383215,7.8769236,-5.403713,2.6671407,0.073303826,0.07574729,0.061086524
1757142383216,7.8769236,-5.403713,2.6671407,-0.3115413,-0.02321288,-0.008552114
1757142383276,7.563283,-5.839458,2.815581,-0.3115413,-0.02321288,-0.008552114
1757142383277,7.563283,-5.839458,2.815581,-0.5815437,-0.17348573,-0.040317107
1757142383335,7.321469,-5.1235914,2.3654714,-0.5815437,-0.17348573,-0.040317107
1757142383337,7.321469,-5.1235914,2.3654714,-0.20280726,-0.22968534,-0.24312437
1757142383396,6.5936313,-5.145139,2.4947581,-0.20280726,-0.22968534,-0.24312437
1757142383397,6.5936313,-5.145139,2.4947581,0.20647246,-0.1966986,-0.12095132
1757142383456,6.045359,-4.1491513,2.8491,0.20647246,-0.1966986,-0.12095132
1757142383457,6.045359,-4.1491513,2.8491,-0.27488935,-0.21991149,0.019547688
1757142383516,5.0062757,-4.534618,1.3599066,-0.27488935,-0.21991149,0.019547688
1757142383517,5.0062757,-4.534618,1.3599066,-0.10873401,-0.12950343,0.04153884
1757142383577,4.805163,-2.7988217,1.5251064,-0.10873401,-0.12950343,0.04153884
1757142383579,4.805163,-2.7988217,1.5251064,0.29077184,0.24801129,0.07819075
1757142383637,4.9176903,-4.465186,1.0151415,0.29077184,0.24801129,0.07819075
1757142383639,4.9176903,-4.465186,1.0151415,0.84299403,0.47525316,0.17715092
1757142383696,5.805939,-3.0310593,1.376666,0.84299403,0.47525316,0.17715092
1757142383697,5.805939,-3.0310593,1.376666,0.52290064,0.35796702,0.25167647
1757142383756,6.0860605,-5.631162,1.9680338,0.52290064,0.35796702,0.25167647
1757142383757,6.0860605,-5.631162,1.9680338,-0.02687807,0.4092797,0.2443461
1757142383816,6.766014,-5.683835,2.0709844,-0.02687807,0.4092797,0.2443461
1757142383817,6.766014,-5.683835,2.0709844,-0.16493362,0.21746802,0.14905111
1757142383876,7.821857,-7.371747,2.5809495,-0.16493362,0.21746802,0.14905111
1757142383877,7.821857,-7.371747,2.5809495,-0.10873401,0.008552114,-0.118507855
1757142383935,7.7931266,-6.6391215,1.9081788,-0.10873401,0.008552114,-0.118507855
1757142383937,7.7931266,-6.6391215,1.9081788,-0.30543262,0.004886922,-0.16982053
1757142383996,8.001422,-6.7253127,2.1571758,-0.30543262,0.004886922,-0.16982053
1757142383998,8.001422,-6.7253127,2.1571758,-0.07574729,0.30176744,-0.3042109
1757142384056,8.564059,-7.264008,2.6431987,-0.07574729,0.30176744,-0.3042109
1757142384058,8.564059,-7.264008,2.6431987,-0.18692477,0.27000242,-0.1282817
1757142384116,9.710882,-7.4746976,3.5673606,-0.18692477,0.27000242,-0.1282817
1757142384117,9.710882,-7.4746976,3.5673606,-0.30298916,-0.0842994,-0.06963864
1757142384171,11.173739,-10.575189,3.6655228,-0.30298916,-0.0842994,-0.06963864
1757142384171,11.173739,-10.575189,3.6655228,-0.07819075,-0.10140363,-0.15271631
1757142384234,11.892,-11.137826,4.7405195,-0.07819075,-0.10140363,-0.15271631
1757142384235,11.892,-11.137826,4.7405195,-0.344528,0.018325957,0.103847094
1757142384296,11.705252,-9.44752,4.280833,-0.344528,0.018325957,0.103847094
1757142384298,11.705252,-9.44752,4.280833,0.2968805,0.22724187,0.07941248
1757142384356,10.184934,-8.865729,3.821146,0.2968805,0.22724187,0.07941248
1757142384358,10.184934,-8.865729,3.821146,0.15515977,0.24556783,0.040317107
1757142384417,9.622296,-7.419631,2.9496565,0.15515977,0.24556783,0.040317107
1757142384418,9.622296,-7.419631,2.9496565,0.68294734,0.13194689,-0.040317107
1757142384477,9.509769,-8.001422,2.6312277,0.68294734,0.13194689,-0.040317107
1757142384478,9.509769,-8.001422,2.6312277,-0.040317107,-0.1685988,0.080634214
1757142384536,7.8170686,-7.321469,3.0095115,-0.040317107,-0.1685988,0.080634214
1757142384538,7.8170686,-7.321469,3.0095115,0.007330383,-0.3286455,0.04153884
1757142384596,7.7428484,-7.1993647,2.825158,0.007330383,-0.3286455,0.04153884
1757142384598,7.7428484,-7.1993647,2.825158,0.38606682,-0.12461651,0.040317107
1757142384656,8.032547,-6.133945,2.5689783,0.38606682,-0.12461651,0.040317107
1757142384657,8.032547,-6.133945,2.5689783,0.32375857,-0.09896017,0.029321533
1757142384716,7.7308774,-6.519411,3.6224272,0.32375857,-0.09896017,0.029321533
1757142384717,7.7308774,-6.519411,3.6224272,0.535118,-0.14294247,0.040317107
1757142384777,7.314286,-6.114791,2.2457612,0.535118,-0.14294247,0.040317107
1757142384778,7.314286,-6.114791,2.2457612,0.007330383,-0.31764993,0.019547688
1757142384837,6.3230867,-4.7524905,2.4396915,0.007330383,-0.31764993,0.019547688
1757142384838,6.3230867,-4.7524905,2.4396915,0.4605924,-0.18325958,-0.09162979
1757142384892,6.8043213,-3.9217024,2.56419,0.4605924,-0.18325958,-0.09162979
1757142384893,6.8043213,-3.9217024,2.56419,-0.11362094,-0.33841935,0.04886922
1757142384956,4.9440265,-3.7684734,3.8402996,-0.11362094,-0.33841935,0.04886922
1757142384957,4.9440265,-3.7684734,3.8402996,0.24190263,0.07086037,-0.019547688
1757142385018,3.2034419,-3.2130187,2.2050598,0.24190263,0.07086037,-0.019547688
1757142385020,3.2034419,-3.2130187,2.2050598,0.63041294,0.41050145,-0.0012217305
1757142385076,2.1188686,-1.9057846,1.5011644,0.63041294,0.41050145,-0.0012217305
1757142385078,2.1188686,-1.9057846,1.5011644,0.7892379,0.8405506,0.02687807
1757142385136,4.2281604,-1.8914193,2.1691468,0.7892379,0.8405506,0.02687807
1757142385138,4.2281604,-1.8914193,2.1691468,0.5717699,0.88697636,0.017104227
1757142385193,11.11149,-3.3375173,5.595249,0.5717699,0.88697636,0.017104227
1757142385194,11.11149,-3.3375173,5.595249,-0.6389651,0.10751228,0.23335053
1757142385259,8.1402855,-9.880871,5.185841,-0.6389651,0.10751228,0.23335053
1757142385261,8.1402855,-9.880871,5.185841,-0.47403142,-0.4813618,0.02321288
1757142385312,5.3845596,-4.675876,5.33907,-0.47403142,-0.4813618,0.02321288
1757142385313,5.3845596,-4.675876,5.33907,1.2388347,0.2284636,-0.46181414
1757142385372,5.602432,-3.5936968,4.5394063,1.2388347,0.2284636,-0.46181414
1757142385373,5.602432,-3.5936968,4.5394063,0.30176744,-0.112399206,0.064751714
1757142385432,7.9463553,-3.3782187,3.5075054,0.30176744,-0.112399206,0.064751714
1757142385433,7.9463553,-3.3782187,3.5075054,-0.04886922,-0.37751472,0.1685988
1757142385496,7.357382,-4.55856,5.0278234,-0.04886922,-0.37751472,0.1685988
1757142385497,7.357382,-4.55856,5.0278234,-0.6096435,-0.02565634,0.13194689
1757142385558,6.6726403,-4.903325,5.379771,-0.6096435,-0.02565634,0.13194689
1757142385561,6.6726403,-4.903325,5.379771,-0.12950343,-0.13561209,-0.017104227
1757142385617,6.5241995,-4.560954,3.5194764,-0.12950343,-0.13561209,-0.017104227
1757142385618,6.5241995,-4.560954,3.5194764,-0.2687807,-0.29077184,-0.007330383
1757142385677,5.556942,-3.7349546,3.5194764,-0.2687807,-0.29077184,-0.007330383
1757142385679,5.556942,-3.7349546,3.5194764,-0.376293,-0.16493362,0.06841691
1757142385738,3.8762126,-2.5785553,3.4284968,-0.376293,-0.16493362,0.06841691
1757142385740,3.8762126,-2.5785553,3.4284968,-0.4361578,-0.021991149,0.07452556
1757142385798,4.072537,-3.301604,2.0374656,-0.4361578,-0.021991149,0.07452556
1757142385800,4.072537,-3.301604,2.0374656,-0.05497787,0.0720821,-0.008552114
1757142385856,4.996699,-3.1651347,1.4796166,-0.05497787,0.0720821,-0.008552114
1757142385858,4.996699,-3.1651347,1.4796166,-0.37140608,0.05131268,0.021991149
1757142385914,6.9958572,-5.6982,2.4732103,-0.37140608,0.05131268,0.021991149
1757142385915,6.9958572,-5.6982,2.4732103,0.05009095,0.08307768,-0.002443461
1757142385978,6.167464,-5.731719,3.1387985,0.05009095,0.08307768,-0.002443461
1757142385980,6.167464,-5.731719,3.1387985,-0.21380283,0.10629055,-0.062308256
1757142386034,7.156269,-5.705383,3.3901896,-0.21380283,0.10629055,-0.062308256
1757142386036,7.156269,-5.705383,3.3901896,-0.15393804,-0.0061086523,-0.028099801
1757142386094,7.989451,-6.14831,3.7134068,-0.15393804,-0.0061086523,-0.028099801
1757142386095,7.989451,-6.14831,3.7134068,0.015882496,-0.073303826,-0.043982297
1757142386156,8.190564,-7.041347,3.7421372,0.015882496,-0.073303826,-0.043982297
1757142386157,8.190564,-7.041347,3.7421372,0.23579398,-0.062308256,0.039095376
1757142386217,8.4587145,-6.777985,3.2680852,0.23579398,-0.062308256,0.039095376
1757142386218,8.4587145,-6.777985,3.2680852,0.030543262,-0.015882496,-0.05375614
1757142386279,8.925584,-7.524976,4.5441947,0.030543262,-0.015882496,-0.05375614
1757142386281,8.925584,-7.524976,4.5441947,0.0036651916,0.13683382,-0.013439035
1757142386338,9.847352,-8.243237,4.7405195,0.0036651916,0.13683382,-0.013439035
1757142386340,9.847352,-8.243237,4.7405195,0.08307768,0.18081611,-0.037873644
1757142386398,10.99178,-8.003817,5.140351,0.08307768,0.18081611,-0.037873644
1757142386400,10.99178,-8.003817,5.140351,0.1685988,0.1441642,-0.07696902
1757142386458,11.760319,-9.361329,5.00867,0.1685988,0.1441642,-0.07696902
1757142386460,11.760319,-9.361329,5.00867,-0.02565634,-0.010995574,0.008552114
1757142386519,11.329363,-8.889671,5.779603,-0.02565634,-0.010995574,0.008552114
1757142386520,11.329363,-8.889671,5.779603,-0.1881465,0.02321288,-0.111177474
1757142386579,10.419566,-7.9870567,6.1004257,-0.1881465,0.02321288,-0.111177474
1757142386581,10.419566,-7.9870567,6.1004257,-0.004886922,0.267559,-0.20769419
1757142386639,8.432379,-6.979098,4.795586,-0.004886922,0.267559,-0.20769419
1757142386640,8.432379,-6.979098,4.795586,0.2968805,0.30665436,-0.14782938
1757142386699,8.444349,-7.192182,3.7373488,0.2968805,0.30665436,-0.14782938
1757142386700,8.444349,-7.192182,3.7373488,0.09285152,0.09285152,-0.02443461
1757142386758,8.408437,-6.196194,3.691859,0.09285152,0.09285152,-0.02443461
1757142386760,8.408437,-6.196194,3.691859,0.052534413,0.11484267,-0.021991149
1757142386820,7.860164,-5.8945246,4.06296,0.052534413,0.11484267,-0.021991149
1757142386821,7.860164,-5.8945246,4.06296,-0.31642818,0.1966986,0.07086037
1757142386879,7.359776,-6.289568,4.7405195,-0.31642818,0.1966986,0.07086037
1757142386881,7.359776,-6.289568,4.7405195,0.16371189,0.14049901,-0.02687807
1757142386940,6.0884547,-4.7405195,3.5625722,0.16371189,0.14049901,-0.02687807
1757142386941,6.0884547,-4.7405195,3.5625722,0.09896017,0.13683382,0.0061086523
1757142386998,5.41329,-5.2265425,3.1196449,0.09896017,0.13683382,0.0061086523
1757142387000,5.41329,-5.2265425,3.1196449,-0.66950834,0.62796944,0.19792034
1757142387059,4.5274353,-2.705448,5.2002063,-0.66950834,0.62796944,0.19792034
1757142387061,4.5274353,-2.705448,5.2002063,-0.83199847,0.7098254,0.087964594
1757142387120,3.8642416,-5.1690817,3.8881836,-0.83199847,0.7098254,0.087964594
1757142387122,3.8642416,-5.1690817,3.8881836,-0.7965683,0.030543262,0.24556783
1757142387178,3.4572272,-3.4835634,3.004723,-0.7965683,0.030543262,0.24556783
1757142387180,3.4572272,-3.4835634,3.004723,0.5510005,0.19425514,0.029321533
1757142387240,2.5139117,-2.72939,2.327164,0.5510005,0.19425514,0.029321533
1757142387242,2.5139117,-2.72939,2.327164,0.80878556,0.37140608,0.029321533
1757142387300,5.0517654,-3.0502129,3.4117374,0.80878556,0.37140608,0.029321533
1757142387302,5.0517654,-3.0502129,3.4117374,0.8038987,0.21746802,0.09040806
1757142387360,6.6103907,-4.927267,5.4420204,0.8038987,0.21746802,0.09040806
1757142387362,6.6103907,-4.927267,5.4420204,-0.24678956,-0.37384954,0.11484267
1757142387422,7.8649526,-7.350199,5.628768,-0.24678956,-0.37384954,0.11484267
1757142387424,7.8649526,-7.350199,5.628768,-0.8197812,-0.657291,-0.0842994
1757142387475,6.1770406,-5.5976434,5.2528787,-0.8197812,-0.657291,-0.0842994
1757142387476,6.1770406,-5.5976434,5.2528787,0.6462954,0.15760323,-0.25411993
1757142387535,5.9783216,-5.315128,4.8626237,0.6462954,0.15760323,-0.25411993
1757142387536,5.9783216,-5.315128,4.8626237,0.17715092,-0.02565634,-0.111177474
1757142387598,6.4284315,-4.51307,4.1946416,0.17715092,-0.02565634,-0.111177474
1757142387600,6.4284315,-4.51307,4.1946416,0.12339478,-0.20769419,-0.0720821
1757142387660,6.945579,-5.104438,5.0302176,0.12339478,-0.20769419,-0.0720821
1757142387661,6.945579,-5.104438,5.0302176,-0.46792278,-0.07086037,0.052534413
1757142387719,6.220136,-5.2863975,5.695806,-0.46792278,-0.07086037,0.052534413
1757142387721,6.220136,-5.2863975,5.695806,0.05375614,-0.05497787,-0.02565634
1757142387780,5.7365074,-4.4915223,4.7285485,0.05375614,-0.05497787,-0.02565634
1757142387781,5.7365074,-4.4915223,4.7285485,0.45814893,-0.25289822,-0.07941248
1757142387839,5.171476,-3.9576154,4.7500963,0.45814893,-0.25289822,-0.07941248
1757142387841,5.171476,-3.9576154,4.7500963,0.6805039,-0.33475417,0.1282817
1757142387901,4.4364557,-4.6016555,4.144363,0.6805039,-0.33475417,0.1282817
1757142387904,4.4364557,-4.6016555,4.144363,1.491733,-0.20769419,0.24556783
1757142387961,4.3406878,-3.7948096,3.5865142,1.491733,-0.20769419,0.24556783
1757142387963,4.3406878,-3.7948096,3.5865142,2.9040534,0.29443705,-0.017104227
1757142388021,4.6519337,-0.9600749,3.6128504,2.9040534,0.29443705,-0.017104227
1757142388022,4.6519337,-0.9600749,3.6128504,0.8026769,0.1160644,0.014660766
1757142388082,5.0637364,-3.7660792,3.0358477,0.8026769,0.1160644,0.014660766
1757142388084,5.0637364,-3.7660792,3.0358477,0.41172317,0.059864793,0.21746802
1757142388140,5.243302,0.50038815,3.3279405,0.41172317,0.059864793,0.21746802
1757142388142,5.243302,0.50038815,3.3279405,1.1276573,0.32620203,0.41050145
1757142388200,5.303157,-1.8052281,6.4044895,1.1276573,0.32620203,0.41050145
1757142388202,5.303157,-1.8052281,6.4044895,0.03176499,0.6035349,0.77824235
1757142388261,5.827487,-7.062895,5.269638,0.03176499,0.6035349,0.77824235
1757142388264,5.827487,-7.062895,5.269638,-0.09896017,0.056199603,0.6621779
1757142388317,6.007052,-3.3063924,8.190564,-0.09896017,0.056199603,0.6621779
1757142388318,6.007052,-3.3063924,8.190564,0.6731735,0.1881465,0.4605924
1757142388376,7.5561004,-4.9703627,8.47308,0.6731735,0.1881465,0.4605924
1757142388377,7.5561004,-4.9703627,8.47308,1.8912388,0.20525073,0.16371189
1757142388438,6.5505357,-2.8491,9.56723,1.8912388,0.20525073,0.16371189
1757142388438,6.5505357,-2.8491,9.56723,-0.8381071,-0.27000242,0.11362094
1757142388500,8.240842,-4.3526587,10.876859,-0.8381071,-0.27000242,0.11362094
1757142388501,8.240842,-4.3526587,10.876859,2.307849,0.5766568,-0.33964106
1757142388560,7.7189064,-2.6982653,10.125079,2.307849,0.5766568,-0.33964106
1757142388561,7.7189064,-2.6982653,10.125079,-1.328021,-0.31031954,0.030543262
1757142388621,10.175357,-6.363788,12.272678,-1.328021,-0.31031954,0.030543262
1757142388623,10.175357,-6.363788,12.272678,0.3726278,0.08307768,0.10751228
1757142388681,8.844181,-6.8402343,12.119449,0.3726278,0.08307768,0.10751228
1757142388682,8.844181,-6.8402343,12.119449,-0.5717699,-0.042760566,0.065973446
1757142388741,7.896077,-4.2760444,11.530476,-0.5717699,-0.042760566,0.065973446
1757142388743,7.896077,-4.2760444,11.530476,0.1600467,0.44837508,-0.095294975
1757142388801,6.291962,-7.1107793,7.5680714,0.1600467,0.44837508,-0.095294975
1757142388802,6.291962,-7.1107793,7.5680714,-1.894904,-0.5412266,0.1881465
1757142388860,6.0238113,-4.177882,8.02297,-1.894904,-0.5412266,0.1881465
1757142388861,6.0238113,-4.177882,8.02297,-1.4001031,-0.20769419,0.24678956
1757142388922,8.24563,-6.7947445,7.2113357,-1.4001031,-0.20769419,0.24678956
1757142388924,8.24563,-6.7947445,7.2113357,-0.29443705,-0.21991149,0.15027285
1757142388982,7.651869,-6.8665705,6.042965,-0.29443705,-0.21991149,0.15027285
1757142388984,7.651869,-6.8665705,6.042965,0.784351,-0.2968805,-0.24312437
1757142389042,7.1131735,-3.2393548,7.3406224,0.784351,-0.2968805,-0.24312437
1757142389044,7.1131735,-3.2393548,7.3406224,2.6279423,0.2284636,-0.19425514
1757142389102,6.3781533,-5.0781016,8.173804,2.6279423,0.2284636,-0.19425514
1757142389103,6.3781533,-5.0781016,8.173804,-0.77579886,-0.4007276,0.14294247
1757142389161,4.2281604,-3.6894648,5.439626,-0.77579886,-0.4007276,0.14294247
1757142389163,4.2281604,-3.6894648,5.439626,0.04886922,-0.14049901,0.103847094
1757142389222,3.2465374,-2.5474305,4.9320555,0.04886922,-0.14049901,0.103847094
1757142389223,3.2465374,-2.5474305,4.9320555,-0.65240407,-0.35430184,0.14172074
1757142389282,3.0693667,-1.0510546,4.453215,-0.65240407,-0.35430184,0.14172074
1757142389283,3.0693667,-1.0510546,4.453215,0.79290307,0.059864793,-0.1160644
1757142389341,3.3446999,-1.5705963,3.9456444,0.79290307,0.059864793,-0.1160644
1757142389343,3.3446999,-1.5705963,3.9456444,0.9211848,-0.20891592,0.12583824
1757142389401,3.7972038,-1.8674773,4.1491513,0.9211848,-0.20891592,0.12583824
1757142389402,3.7972038,-1.8674773,4.1491513,0.5204572,-0.12461651,-0.103847094
1757142389462,5.410896,-2.468422,5.707777,0.5204572,-0.12461651,-0.103847094
1757142389464,5.410896,-2.468422,5.707777,0.06719518,0.0061086523,-0.18081611
1757142389521,6.030994,-2.60968,6.7372837,0.06719518,0.0061086523,-0.18081611
1757142389523,6.030994,-2.60968,6.7372837,-0.5571091,0.058643065,-0.095294975
1757142389581,6.801927,-3.0909145,6.7564373,-0.5571091,0.058643065,-0.095294975
1757142389582,6.801927,-3.0909145,6.7564373,-0.57543504,0.08552113,-0.12095132
1757142389637,6.706159,-3.5290532,6.83784,-0.57543504,0.08552113,-0.12095132
1757142389637,6.706159,-3.5290532,6.83784,-0.6084218,0.11484267,-0.18203785
1757142389701,6.447585,-3.4404678,6.167464,-0.6084218,0.11484267,-0.18203785
1757142389702,6.447585,-3.4404678,6.167464,-0.23090707,0.061086524,-0.1881465
1757142389761,5.8442464,-2.669535,5.9424086,-0.23090707,0.061086524,-0.1881465
1757142389762,5.8442464,-2.669535,5.9424086,-0.44837508,-0.1282817,-0.035430185
1757142389824,6.1123967,-3.4237084,5.451597,-0.44837508,-0.1282817,-0.035430185
1757142389826,6.1123967,-3.4237084,5.451597,-0.79534656,-0.17959438,0.02076942
1757142389882,5.422867,-3.6703112,5.33907,-0.79534656,-0.17959438,0.02076942
1757142389884,5.422867,-3.6703112,5.33907,-0.07819075,0.0,0.080634214
1757142389941,5.1259856,-3.2944214,5.0421886,-0.07819075,0.0,0.080634214
1757142389943,5.1259856,-3.2944214,5.0421886,-0.67073005,-0.14172074,0.21746802
1757142390003,4.6591167,-3.5338416,4.721366,-0.67073005,-0.14172074,0.21746802
1757142390005,4.6591167,-3.5338416,4.721366,-0.5742133,-0.10995574,0.112399206
1757142390063,4.235343,-3.3255463,3.7253778,-0.5742133,-0.10995574,0.112399206
1757142390065,4.235343,-3.3255463,3.7253778,-0.6963864,-0.2125811,0.03176499
1757142390122,4.271256,-3.6032736,3.301604,-0.6963864,-0.2125811,0.03176499
1757142390124,4.271256,-3.6032736,3.301604,-0.4129449,-0.17104226,-0.057421334
1757142390181,5.425261,-4.7884035,3.5817258,-0.4129449,-0.17104226,-0.057421334
1757142390183,5.425261,-4.7884035,3.5817258,-0.52778757,-0.20280726,-0.16371189
1757142390241,5.805939,-4.9320555,4.3167458,-0.52778757,-0.20280726,-0.16371189
1757142390243,5.805939,-4.9320555,4.3167458,0.23335053,0.08552113,-0.24678956
1757142390298,6.2249246,-4.675876,4.8243165,0.23335053,0.08552113,-0.24678956
1757142390299,6.2249246,-4.675876,4.8243165,-0.23090707,0.21868975,-0.31398472
1757142390358,6.6391215,-5.911284,5.415684,-0.23090707,0.21868975,-0.31398472
1757142390358,6.6391215,-5.911284,5.415684,0.18936823,0.31520647,-0.32620203
1757142390420,7.0581064,-5.865794,5.9448028,0.18936823,0.31520647,-0.32620203
1757142390421,7.0581064,-5.865794,5.9448028,-0.42149702,0.19547687,-0.21380283
1757142390481,7.632715,-6.3589997,6.191406,-0.42149702,0.19547687,-0.21380283
1757142390482,7.632715,-6.3589997,6.191406,0.32498032,0.22357668,-0.2761111
1757142390539,8.200141,-6.3206925,6.2105594,0.32498032,0.22357668,-0.2761111
1757142390540,8.200141,-6.3206925,6.2105594,-0.4361578,-0.08674286,-0.04520403
1757142390597,8.755595,-6.363788,6.8881183,-0.4361578,-0.08674286,-0.04520403
1757142390598,8.755595,-6.363788,6.8881183,-0.13683382,0.0036651916,-0.09040806
1757142390658,9.698911,-7.2328835,6.9527617,-0.13683382,0.0036651916,-0.09040806
1757142390659,9.698911,-7.2328835,6.9527617,0.30176744,0.007330383,-0.07696902
1757142390720,9.859323,-7.675811,8.815451,0.30176744,0.007330383,-0.07696902
1757142390722,9.859323,-7.675811,8.815451,-0.06719518,0.032986723,0.029321533
1757142390779,9.478644,-5.746084,7.1754227,-0.06719518,0.032986723,0.029321533
1757142390780,9.478644,-5.746084,7.1754227,1.8936822,0.5705481,-0.06963864
1757142390840,8.597578,-6.9838862,8.511387,1.8936822,0.5705481,-0.06963864
1757142390841,8.597578,-6.9838862,8.511387,-1.0311406,-0.16982053,0.3042109
1757142390903,7.577648,-4.9105077,7.8793178,-1.0311406,-0.16982053,0.3042109
1757142390905,7.577648,-4.9105077,7.8793178,1.5906931,0.09896017,0.12705997
1757142390962,7.1586633,-4.134786,7.4627266,1.5906931,0.09896017,0.12705997
1757142390964,7.1586633,-4.134786,7.4627266,0.47403142,-0.2321288,0.59742624
1757142391022,6.9886746,-3.7134068,6.493075,0.47403142,-0.2321288,0.59742624
1757142391023,6.9886746,-3.7134068,6.493075,2.0879374,0.46181414,0.8857546
1757142391084,6.7085533,-4.3885717,8.058883,2.0879374,0.46181414,0.8857546
1757142391085,6.7085533,-4.3885717,8.058883,1.128879,0.43004912,1.1129965
1757142391143,5.6000376,-2.7461493,7.8410106,1.128879,0.43004912,1.1129965
1757142391144,5.6000376,-2.7461493,7.8410106,1.3390167,0.8026769,1.2290609
1757142391202,5.140351,-3.2010477,7.920019,1.3390167,0.8026769,1.2290609
1757142391204,5.140351,-3.2010477,7.920019,2.6829202,1.0910053,1.1985176
1757142391264,3.7493198,-1.4532804,7.321469,2.6829202,1.0910053,1.1985176
1757142391266,3.7493198,-1.4532804,7.321469,2.1013765,1.1777482,1.346347
1757142391323,1.3670892,-1.4101849,7.6734166,2.1013765,1.1777482,1.346347
1757142391325,1.3670892,-1.4101849,7.6734166,2.6193902,1.4990633,1.409877
1757142391383,0.8571242,0.37349546,6.531382,2.6193902,1.4990633,1.409877
1757142391385,0.8571242,0.37349546,6.531382,3.1483996,1.9572122,0.9089675
1757142391443,0.3854665,0.80205756,6.129156,3.1483996,1.9572122,0.9089675
1757142391446,0.3854665,0.80205756,6.129156,3.0262265,1.6811012,0.5925393
1757142391503,-0.2753332,2.5570073,5.8825536,3.0262265,1.6811012,0.5925393
1757142391506,-0.2753332,2.5570073,5.8825536,1.0800097,0.9419542,0.2846632
1757142391562,0.39264908,2.4468741,7.165846,1.0800097,0.9419542,0.2846632
1757142391564,0.39264908,2.4468741,7.165846,0.9431759,0.3494149,0.10629055
1757142391621,0.59855044,4.0294414,7.762002,0.9431759,0.3494149,0.10629055
1757142391623,0.59855044,4.0294414,7.762002,0.040317107,-0.13439035,0.18325958
1757142391681,0.49081135,3.3877954,9.107543,0.040317107,-0.13439035,0.18325958
1757142391682,0.49081135,3.3877954,9.107543,-0.08674286,-0.07574729,0.3005457
1757142391739,0.34476504,4.630386,9.3182335,-0.08674286,-0.07574729,0.3005457
1757142391739,0.34476504,4.630386,9.3182335,-0.31031954,-0.10995574,0.0720821
1757142391800,0.22744916,4.656722,8.798691,-0.31031954,-0.10995574,0.0720821
1757142391800,0.22744916,4.656722,8.798691,0.080634214,-0.012217305,-0.19914207
1757142391863,0.59136784,4.6375685,8.343793,0.080634214,-0.012217305,-0.19914207
1757142391864,0.59136784,4.6375685,8.343793,-0.26145032,-0.065973446,-0.034208454
1757142391924,0.82360536,4.1180267,8.932767,-0.26145032,-0.065973446,-0.034208454
1757142391925,0.82360536,4.1180267,8.932767,-0.28221974,-0.02076942,0.26633725
1757142391984,0.6368576,4.0940847,8.7771435,-0.28221974,-0.02076942,0.26633725
1757142391985,0.6368576,4.0940847,8.7771435,0.2125811,0.18081611,-0.04153884
1757142392044,0.15083471,4.27365,8.944737,0.2125811,0.18081611,-0.04153884
1757142392046,0.15083471,4.27365,8.944737,-0.20769419,-0.073303826,-0.13927728
1757142392103,0.533907,4.0462008,9.165004,-0.20769419,-0.073303826,-0.13927728
1757142392104,0.533907,4.0462008,9.165004,-0.13316862,-0.018325957,0.0842994
1757142392164,0.29448682,4.012682,9.057265,-0.13316862,-0.018325957,0.0842994
1757142392166,0.29448682,4.012682,9.057265,-0.073303826,0.07819075,0.087964594
1757142392224,0.40940848,4.0462008,9.002198,-0.073303826,0.07819075,0.087964594
1757142392225,0.40940848,4.0462008,9.002198,0.05375614,0.004886922,-0.018325957
1757142392298,0.39504328,3.7660792,8.935161,0.05375614,0.004886922,-0.018325957
1757142392298,0.39504328,3.7660792,8.935161,-0.0012217305,-0.014660766,-0.036651913
1757142392339,0.2681506,3.7301662,9.564836,-0.0012217305,-0.014660766,-0.036651913
1757142392339,0.2681506,3.7301662,9.564836,0.009773844,0.12095132,0.017104227
